File: completed/Ning_2019/RawDataFromAuthors/SAXS 152K.csv
qq,RPI-XN-HDPE-Q i,HDPE-128,RPI-XN-HDPE-128,RPI-XN-HDPE-130,,q (A^-1),RPI-XN-4-71 in Co,RPI-XN-4-73-1280C,RPI-XN-4-73-1285C,RPI-XN-4-73-1290C,RPI-XN-4-73-1295C,RPI-XN-4-73-1300C,RPI-XN-4-73-1305C
3.70E-03,6.72E+01,2.49E+02,3.97E+02,6.98E+02,,3.70E-03,1.07E+04,15400,19000,19600,16900,8240,16600
4.19E-03,5.77E+01,1.83E+02,2.64E+02,4.90E+02,,4.19E-03,7.38E+03,11400,14000,14500,12600,6330,12300
4.68E-03,4.49E+01,1.40E+02,2.01E+02,3.38E+02,,4.68E-03,4.99E+03,8460,10100,10500,9260,4650,9110
5.17E-03,4.24E+01,1.22E+02,1.58E+02,2.68E+02,,5.17E-03,3.62E+03,6440,7600,8080,7200,3530,6930
5.66E-03,3.53E+01,1.03E+02,1.36E+02,2.19E+02,,5.66E-03,2.70E+03,5100,5860,6220,5630,2730,5450
6.15E-03,3.17E+01,1.03E+02,1.27E+02,2.04E+02,,6.15E-03,2.08E+03,4040,4570,4840,4460,2160,4340
6.64E-03,2.78E+01,9.65E+01,1.24E+02,1.89E+02,,6.64E-03,1.64E+03,3210,3610,3800,3570,1690,3390
7.14E-03,2.49E+01,9.76E+01,1.21E+02,1.89E+02,,7.14E-03,1.34E+03,2620,2900,3090,2930,1380,2820
7.63E-03,2.26E+01,9.80E+01,1.20E+02,1.88E+02,,7.63E-03,1.08E+03,2220,2400,2580,2470,1170,2390
8.12E-03,2.20E+01,1.00E+02,1.24E+02,1.93E+02,,8.12E-03,9.16E+02,1860,2010,2160,2090,966,2010
8.61E-03,2.19E+01,1.03E+02,1.28E+02,2.06E+02,,8.61E-03,7.83E+02,1610,1740,1860,1830,838,1790
8.91E-03,2.09E+01,1.04E+02,1.34E+02,2.17E+02,,8.91E-03,7.06E+02,1500,1590,1710,1670,774,1650
9.60E-03,2.13E+01,1.09E+02,1.40E+02,2.27E+02,,9.60E-03,5.87E+02,1210,1300,1400,1380,629,1360
1.03E-02,2.14E+01,1.16E+02,1.47E+02,2.42E+02,,1.03E-02,4.87E+02,1050,1120,1200,1210,535,1170
1.10E-02,2.17E+01,1.20E+02,1.47E+02,2.36E+02,,1.10E-02,4.21E+02,894,962,1040,1050,451,988
1.17E-02,2.31E+01,1.21E+02,1.46E+02,2.22E+02,,1.17E-02,3.69E+02,790,856,926,926,391,854
1.24E-02,2.40E+01,1.18E+02,1.33E+02,1.94E+02,,1.24E-02,3.32E+02,705,766,821,813,337,725
1.30E-02,2.59E+01,1.10E+02,1.19E+02,1.60E+02,,1.30E-02,2.93E+02,631,683,718,713,292,611
1.37E-02,2.75E+01,1.01E+02,1.03E+02,1.25E+02,,1.37E-02,2.66E+02,570,607,631,624,255,531
1.44E-02,2.89E+01,8.73E+01,8.43E+01,9.46E+01,,1.44E-02,2.44E+02,500,534,545,540,219,447
1.51E-02,3.11E+01,7.39E+01,6.97E+01,7.12E+01,,1.51E-02,2.26E+02,454,470,474,471,193,396
1.58E-02,3.23E+01,6.03E+01,5.54E+01,5.27E+01,,1.58E-02,2.10E+02,399,412,405,407,168,342
1.65E-02,3.42E+01,4.96E+01,4.44E+01,4.01E+01,,1.65E-02,1.98E+02,360,362,360,363,151,309
1.72E-02,3.47E+01,3.92E+01,3.47E+01,3.13E+01,,1.72E-02,1.86E+02,317,320,317,321,133,275
1.79E-02,3.68E+01,3.15E+01,2.92E+01,2.54E+01,,1.79E-02,1.78E+02,289,285,286,292,122,253
1.85E-02,3.68E+01,2.46E+01,2.38E+01,2.19E+01,,1.85E-02,1.68E+02,260,258,259,265,110,231
1.92E-02,3.72E+01,2.09E+01,2.03E+01,2.08E+01,,1.92E-02,1.62E+02,238,232,236,245,102,216
1.99E-02,3.63E+01,1.71E+01,1.80E+01,1.99E+01,,1.99E-02,1.57E+02,217,215,218,226,93.3,200
2.06E-02,3.58E+01,1.51E+01,1.67E+01,2.05E+01,,2.06E-02,1.50E+02,202,200,205,214,88.3,191
2.13E-02,3.42E+01,1.37E+01,1.60E+01,2.03E+01,,2.13E-02,1.46E+02,187,186,193,200,81.9,179
2.20E-02,3.25E+01,1.30E+01,1.60E+01,2.19E+01,,2.20E-02,1.40E+02,177,177,184,192,78.3,172
2.27E-02,2.99E+01,1.22E+01,1.57E+01,2.21E+01,,2.27E-02,1.36E+02,167,168,175,183,74.1,163
2.34E-02,2.82E+01,1.22E+01,1.60E+01,2.26E+01,,2.34E-02,1.31E+02,159,163,169,175,70.6,155
2.41E-02,2.50E+01,1.20E+01,1.58E+01,2.23E+01,,2.41E-02,1.24E+02,152,155,162,169,67,148
2.47E-02,2.26E+01,1.20E+01,1.59E+01,2.20E+01,,2.47E-02,1.20E+02,146,151,156,163,64.9,141
2.54E-02,2.02E+01,1.20E+01,1.57E+01,2.13E+01,,2.54E-02,1.16E+02,141,146,151,157,61.6,135
2.61E-02,1.81E+01,1.16E+01,1.53E+01,1.98E+01,,2.61E-02,1.11E+02,136,142,146,150,59.1,129
2.68E-02,1.61E+01,1.16E+01,1.54E+01,1.92E+01,,2.68E-02,1.06E+02,134,140,143,146,57.2,125
2.75E-02,1.44E+01,1.14E+01,1.45E+01,1.81E+01,,2.75E-02,1.04E+02,130,137,139,143,55.4,120
2.82E-02,1.28E+01,1.09E+01,1.36E+01,1.65E+01,,2.82E-02,9.86E+01,126,133,133,137,53.3,115
2.89E-02,1.12E+01,1.04E+01,1.29E+01,1.51E+01,,2.89E-02,9.46E+01,122,129,129,131,51,110
2.96E-02,9.80E+00,9.90E+00,1.19E+01,1.34E+01,,2.96E-02,9.06E+01,118,125,124,126,48.4,106
3.02E-02,8.78E+00,9.32E+00,1.10E+01,1.22E+01,,3.02E-02,8.66E+01,114,120,120,120,46.7,101
3.09E-02,7.71E+00,8.56E+00,1.01E+01,1.09E+01,,3.09E-02,8.30E+01,109,114,114,115,44.4,96.2
3.16E-02,6.82E+00,7.87E+00,9.14E+00,9.69E+00,,3.16E-02,7.95E+01,105,111,110,109,42.4,91.9
3.23E-02,6.07E+00,7.43E+00,8.40E+00,8.76E+00,,3.23E-02,7.65E+01,99.5,107,105,105,40.5,87.5
3.30E-02,5.51E+00,6.66E+00,7.61E+00,8.01E+00,,3.30E-02,7.33E+01,94.9,102,99.2,99.6,38.1,84.1
3.37E-02,4.87E+00,6.14E+00,6.62E+00,7.32E+00,,3.37E-02,6.91E+01,90,95.4,94.5,94.1,36.3,79.5
3.44E-02,4.52E+00,5.56E+00,6.07E+00,6.62E+00,,3.44E-02,6.57E+01,84.3,91,89.2,89.3,33.9,74.9
3.51E-02,4.00E+00,4.99E+00,5.55E+00,6.21E+00,,3.51E-02,6.22E+01,78.8,85.7,83.5,83.1,32,70.8
3.57E-02,3.72E+00,4.50E+00,4.91E+00,5.90E+00,,3.57E-02,5.84E+01,73.3,80,78.5,77.9,29.9,65.9
3.64E-02,3.50E+00,4.13E+00,4.66E+00,5.54E+00,,3.64E-02,5.41E+01,67.7,74.8,73.5,72.4,27.9,61.4
3.71E-02,3.18E+00,3.73E+00,4.38E+00,5.33E+00,,3.71E-02,5.11E+01,63,69.7,68.4,67.5,25.8,57
3.78E-02,2.96E+00,3.49E+00,3.96E+00,4.94E+00,,3.78E-02,4.71E+01,58,64.7,62.9,62.4,24,52.9
3.85E-02,2.79E+00,3.24E+00,3.73E+00,4.73E+00,,3.85E-02,4.39E+01,52.9,59.5,58.3,57.4,22,48.8
3.92E-02,2.72E+00,2.87E+00,3.42E+00,4.53E+00,,3.92E-02,4.07E+01,48.9,54.7,53.6,53,20.4,45.1
3.99E-02,2.40E+00,2.87E+00,3.35E+00,4.35E+00,,3.99E-02,3.78E+01,44.6,50.4,49.3,48.7,18.6,41.1
4.06E-02,2.34E+00,2.60E+00,3.08E+00,4.08E+00,,4.06E-02,3.43E+01,40.9,45.7,45.5,44.9,17.1,37.9
4.13E-02,2.21E+00,2.37E+00,2.92E+00,3.82E+00,,4.13E-02,3.12E+01,37.4,42.5,41.2,40.5,15.5,34.3
4.19E-02,2.11E+00,2.37E+00,2.78E+00,3.66E+00,,4.19E-02,2.85E+01,34,38.6,38.1,37.2,14.3,31.5
4.26E-02,1.95E+00,2.24E+00,2.61E+00,3.32E+00,,4.26E-02,2.62E+01,31.3,35.6,34.9,34.4,13.2,29
4.33E-02,1.84E+00,2.09E+00,2.53E+00,3.18E+00,,4.33E-02,2.44E+01,29.1,33.2,32.1,31.6,12.3,26.7
4.40E-02,1.90E+00,2.05E+00,2.42E+00,3.01E+00,,4.40E-02,2.26E+01,26.9,30.6,30.2,29.4,11.3,24.9
4.47E-02,1.77E+00,1.94E+00,2.34E+00,2.84E+00,,4.47E-02,2.10E+01,25.2,28.8,28.2,27.8,10.6,23.5
4.54E-02,1.77E+00,1.88E+00,2.18E+00,2.61E+00,,4.54E-02,1.97E+01,23.8,27.2,26.4,25.9,10,21.7
4.61E-02,1.58E+00,1.78E+00,2.09E+00,2.48E+00,,4.61E-02,1.85E+01,22.3,25.5,24.5,24.3,9.43,20.8
4.68E-02,1.60E+00,1.69E+00,2.03E+00,2.23E+00,,4.68E-02,1.74E+01,21.2,23.9,23.2,23.3,8.92,19.4
4.74E-02,1.55E+00,1.60E+00,1.81E+00,2.19E+00,,4.74E-02,1.67E+01,20.1,22.6,22.1,21.8,8.39,18.6
4.81E-02,1.46E+00,1.57E+00,1.75E+00,2.00E+00,,4.81E-02,1.59E+01,19.1,21.6,20.9,20.9,7.97,17.6
4.88E-02,1.34E+00,1.44E+00,1.69E+00,1.93E+00,,4.88E-02,1.51E+01,18.2,20.5,20.1,20,7.7,16.9
4.95E-02,1.36E+00,1.34E+00,1.60E+00,1.75E+00,,4.95E-02,1.44E+01,17.7,19.9,19.2,19.1,7.41,16.3
5.02E-02,1.30E+00,1.35E+00,1.46E+00,1.74E+00,,5.02E-02,1.40E+01,17,19.1,18.6,18.4,7.05,15.9
5.09E-02,1.28E+00,1.29E+00,1.41E+00,1.58E+00,,5.09E-02,1.35E+01,16.3,18.1,17.6,17.8,6.82,15.2
5.16E-02,1.18E+00,1.15E+00,1.29E+00,1.49E+00,,5.16E-02,1.32E+01,15.9,17.5,17.1,17,6.61,14.7
5.23E-02,1.12E+00,1.11E+00,1.22E+00,1.51E+00,,5.23E-02,1.27E+01,15.4,17.1,16.5,16.4,6.48,14.3
5.29E-02,1.08E+00,1.08E+00,1.18E+00,1.40E+00,,5.29E-02,1.23E+01,14.9,16.7,16,16.1,6.14,13.8
5.36E-02,9.62E-01,9.74E-01,1.08E+00,1.38E+00,,5.36E-02,1.23E+01,14.3,16.2,15.4,15.5,6.02,13.5
5.43E-02,9.82E-01,9.46E-01,1.03E+00,1.33E+00,,5.43E-02,1.16E+01,13.8,15.7,15.1,15.1,5.86,12.9
5.50E-02,9.42E-01,9.14E-01,1.02E+00,1.32E+00,,5.50E-02,1.14E+01,13.5,15.2,14.7,14.8,5.67,12.5
5.57E-02,8.64E-01,8.23E-01,1.03E+00,1.24E+00,,5.57E-02,1.10E+01,12.9,14.6,14.1,14,5.49,12.2
5.64E-02,8.65E-01,8.07E-01,9.66E-01,1.17E+00,,5.64E-02,1.07E+01,12.6,14.1,13.8,13.8,5.29,11.8
5.71E-02,7.80E-01,8.19E-01,9.17E-01,1.16E+00,,5.71E-02,1.05E+01,12.1,13.8,13.3,13.2,5.19,11.4
5.78E-02,7.80E-01,7.43E-01,9.15E-01,1.16E+00,,5.78E-02,1.01E+01,11.8,13.3,12.9,12.9,5.04,11.2
5.85E-02,7.37E-01,7.06E-01,8.62E-01,1.05E+00,,5.85E-02,9.81E+00,11.4,12.8,12.5,12.5,4.87,10.5
5.91E-02,6.61E-01,6.88E-01,8.43E-01,1.03E+00,,5.91E-02,9.62E+00,10.9,12.5,11.9,12,4.7,10.3
5.98E-02,6.62E-01,6.96E-01,7.53E-01,9.70E-01,,5.98E-02,9.09E+00,10.6,11.9,11.6,11.6,4.53,10.1
6.05E-02,6.58E-01,6.41E-01,7.28E-01,9.28E-01,,6.05E-02,8.92E+00,10,11.6,11.3,11.1,4.34,9.46
6.12E-02,5.90E-01,6.05E-01,7.63E-01,8.85E-01,,6.12E-02,8.53E+00,9.76,11.1,10.8,10.7,4.11,9.12
6.19E-02,5.54E-01,6.19E-01,7.08E-01,8.57E-01,,6.19E-02,8.37E+00,9.37,10.7,10.4,10.3,4.02,8.88
6.26E-02,5.17E-01,5.81E-01,6.71E-01,7.73E-01,,6.26E-02,7.87E+00,8.89,10.3,9.98,9.86,3.82,8.41
6.33E-02,5.04E-01,5.54E-01,6.31E-01,8.38E-01,,6.33E-02,7.65E+00,8.6,9.87,9.49,9.39,3.64,8.1
6.40E-02,4.85E-01,5.37E-01,6.46E-01,7.55E-01,,6.40E-02,7.30E+00,8.2,9.58,9.06,9.16,3.5,7.92
6.46E-02,4.50E-01,5.30E-01,5.77E-01,7.77E-01,,6.46E-02,7.03E+00,7.82,8.97,8.71,8.61,3.34,7.44
6.53E-02,4.47E-01,5.02E-01,5.58E-01,7.23E-01,,6.53E-02,6.71E+00,7.58,8.65,8.4,8.24,3.15,7.16
6.60E-02,4.10E-01,5.03E-01,5.61E-01,6.50E-01,,6.60E-02,6.53E+00,7.25,8.19,7.99,7.91,3.1,6.77
6.67E-02,4.11E-01,4.60E-01,5.34E-01,6.44E-01,,6.67E-02,6.22E+00,6.79,7.96,7.62,7.55,2.96,6.54
6.74E-02,3.87E-01,4.22E-01,5.24E-01,6.24E-01,,6.74E-02,5.96E+00,6.71,7.51,7.19,7.14,2.81,6.12
6.81E-02,3.66E-01,4.24E-01,4.94E-01,6.05E-01,,6.81E-02,5.80E+00,6.33,7.26,6.97,6.94,2.64,5.96
6.88E-02,3.43E-01,4.12E-01,4.82E-01,5.52E-01,,6.88E-02,5.47E+00,5.98,6.92,6.56,6.56,2.5,5.66
6.95E-02,3.06E-01,4.02E-01,4.56E-01,5.94E-01,,6.95E-02,5.19E+00,5.76,6.58,6.34,6.29,2.48,5.36
7.02E-02,2.99E-01,4.08E-01,4.68E-01,5.58E-01,,7.02E-02,5.00E+00,5.45,6.26,6.11,6.02,2.4,5.12
7.08E-02,2.94E-01,3.67E-01,4.28E-01,5.31E-01,,7.08E-02,4.77E+00,5.29,5.98,5.8,5.78,2.26,4.93
7.15E-02,2.86E-01,3.47E-01,4.04E-01,5.00E-01,,7.15E-02,4.62E+00,5.01,5.76,5.65,5.54,2.15,4.76
7.22E-02,2.87E-01,3.41E-01,3.91E-01,5.21E-01,,7.22E-02,4.47E+00,4.86,5.64,5.3,5.27,2.04,4.57
7.29E-02,2.70E-01,3.29E-01,3.90E-01,4.53E-01,,7.29E-02,4.16E+00,4.58,5.33,5.08,5.11,1.99,4.44
7.36E-02,2.60E-01,3.34E-01,3.73E-01,4.65E-01,,7.36E-02,4.07E+00,4.47,5.09,5.01,4.83,1.92,4.22
7.43E-02,2.60E-01,2.89E-01,3.40E-01,4.52E-01,,7.43E-02,3.98E+00,4.34,4.92,4.75,4.78,1.81,4.05
7.50E-02,2.41E-01,2.85E-01,3.25E-01,4.38E-01,,7.50E-02,3.86E+00,4.24,4.78,4.53,4.66,1.76,3.91
7.57E-02,2.29E-01,3.00E-01,3.40E-01,4.30E-01,,7.57E-02,3.62E+00,4.03,4.65,4.53,4.41,1.68,3.8
7.63E-02,2.30E-01,2.95E-01,3.26E-01,4.22E-01,,7.63E-02,3.63E+00,3.87,4.43,4.41,4.29,1.65,3.67
7.70E-02,2.23E-01,2.71E-01,3.10E-01,3.99E-01,,7.70E-02,3.36E+00,3.76,4.37,4.16,4.11,1.62,3.51
7.77E-02,1.97E-01,2.58E-01,3.16E-01,3.88E-01,,7.77E-02,3.28E+00,3.59,4.21,3.98,4.03,1.54,3.44
7.84E-02,2.17E-01,2.46E-01,2.92E-01,3.46E-01,,7.84E-02,3.23E+00,3.53,4.11,3.89,3.93,1.5,3.35
7.91E-02,1.91E-01,2.42E-01,2.72E-01,3.69E-01,,7.91E-02,3.06E+00,3.43,4.01,3.78,3.78,1.43,3.26
7.98E-02,1.96E-01,2.41E-01,2.87E-01,3.57E-01,,7.98E-02,3.03E+00,3.35,3.87,3.7,3.7,1.37,3.19
8.05E-02,1.83E-01,2.39E-01,2.75E-01,3.22E-01,,8.05E-02,2.97E+00,3.23,3.75,3.54,3.62,1.37,3.03
8.12E-02,1.90E-01,2.08E-01,2.62E-01,3.16E-01,,8.12E-02,2.86E+00,3.15,3.58,3.51,3.47,1.32,2.97
8.18E-02,1.85E-01,2.19E-01,2.70E-01,3.10E-01,,8.18E-02,2.77E+00,3.05,3.52,3.36,3.37,1.27,2.88
8.25E-02,1.71E-01,2.12E-01,2.48E-01,3.19E-01,,8.25E-02,2.63E+00,2.94,3.42,3.26,3.18,1.23,2.76
8.32E-02,1.64E-01,2.09E-01,2.45E-01,2.92E-01,,8.32E-02,2.56E+00,2.85,3.39,3.24,3.18,1.24,2.72
8.39E-02,1.60E-01,1.78E-01,2.37E-01,2.74E-01,,8.39E-02,2.63E+00,2.79,3.2,3.07,3.11,1.19,2.66
8.46E-02,1.59E-01,1.87E-01,2.37E-01,2.57E-01,,8.46E-02,2.48E+00,2.78,3.13,3.03,2.98,1.16,2.55
8.53E-02,1.65E-01,1.79E-01,2.04E-01,2.59E-01,,8.53E-02,2.43E+00,2.65,3.12,2.97,2.89,1.13,2.48
8.60E-02,1.48E-01,1.75E-01,2.12E-01,2.55E-01,,8.60E-02,2.36E+00,2.58,2.95,2.87,2.82,1.11,2.45
8.67E-02,1.37E-01,1.65E-01,1.92E-01,2.46E-01,,8.67E-02,2.31E+00,2.53,2.9,2.74,2.78,1.05,2.33
8.74E-02,1.32E-01,1.67E-01,2.02E-01,2.32E-01,,8.74E-02,2.21E+00,2.48,2.85,2.71,2.77,1.01,2.29
8.80E-02,1.32E-01,1.58E-01,1.91E-01,2.30E-01,,8.80E-02,2.15E+00,2.36,2.76,2.58,2.57,1.01,2.24
8.87E-02,1.22E-01,1.56E-01,1.75E-01,2.41E-01,,8.87E-02,2.09E+00,2.3,2.65,2.48,2.5,0.98,2.19
8.94E-02,1.37E-01,1.48E-01,1.77E-01,1.99E-01,,8.94E-02,2.07E+00,2.26,2.62,2.51,2.48,0.963,2.17
9.01E-02,1.17E-01,1.57E-01,1.81E-01,2.18E-01,,9.01E-02,2.04E+00,2.15,2.51,2.42,2.41,0.898,2.06
9.08E-02,1.13E-01,1.39E-01,1.71E-01,2.11E-01,,9.08E-02,1.89E+00,2.05,2.4,2.34,2.3,0.882,2.01
9.15E-02,1.13E-01,1.34E-01,1.70E-01,2.13E-01,,9.15E-02,1.89E+00,2.07,2.38,2.35,2.27,0.863,1.95
9.22E-02,1.11E-01,1.44E-01,1.53E-01,1.82E-01,,9.22E-02,1.84E+00,2.01,2.31,2.26,2.19,0.843,1.88
9.29E-02,1.19E-01,1.37E-01,1.43E-01,1.88E-01,,9.29E-02,1.78E+00,1.95,2.27,2.13,2.09,0.803,1.81
9.35E-02,1.06E-01,1.38E-01,1.46E-01,2.02E-01,,9.35E-02,1.74E+00,1.85,2.21,2.09,2.09,0.814,1.8
9.42E-02,1.04E-01,1.35E-01,1.52E-01,1.95E-01,,9.42E-02,1.65E+00,1.92,2.1,2.03,1.97,0.778,1.75
9.49E-02,1.06E-01,1.14E-01,1.36E-01,1.70E-01,,9.49E-02,1.67E+00,1.76,2.03,1.96,1.96,0.741,1.73
9.56E-02,9.30E-02,1.13E-01,1.41E-01,1.69E-01,,9.56E-02,1.60E+00,1.72,2.01,1.94,1.91,0.729,1.64
9.63E-02,9.39E-02,1.09E-01,1.39E-01,1.57E-01,,9.63E-02,1.56E+00,1.66,2.03,1.83,1.88,0.719,1.56
9.70E-02,8.96E-02,1.14E-01,1.21E-01,1.46E-01,,9.70E-02,1.55E+00,1.66,1.87,1.83,1.77,0.684,1.54
9.77E-02,8.80E-02,1.06E-01,1.28E-01,1.51E-01,,9.77E-02,1.51E+00,1.6,1.83,1.74,1.75,0.681,1.48
9.84E-02,8.75E-02,1.20E-01,1.29E-01,1.51E-01,,9.84E-02,1.45E+00,1.55,1.8,1.74,1.67,0.65,1.42
9.91E-02,8.23E-02,1.11E-01,1.23E-01,1.48E-01,,9.91E-02,1.36E+00,1.49,1.71,1.68,1.64,0.618,1.45
9.97E-02,8.39E-02,1.05E-01,1.18E-01,1.51E-01,,9.97E-02,1.35E+00,1.42,1.72,1.65,1.57,0.615,1.35
1.00E-01,7.90E-02,9.89E-02,1.08E-01,1.42E-01,,1.00E-01,1.27E+00,1.42,1.63,1.54,1.54,0.606,1.34
1.02E-01,7.89E-02,9.60E-02,1.06E-01,1.31E-01,,1.02E-01,1.20E+00,1.37,1.52,1.5,1.46,0.574,1.27
1.03E-01,7.31E-02,9.09E-02,1.04E-01,1.26E-01,,1.03E-01,1.13E+00,1.29,1.43,1.42,1.34,0.545,1.17
1.05E-01,6.57E-02,8.25E-02,9.33E-02,1.24E-01,,1.05E-01,1.09E+00,1.25,1.37,1.38,1.31,0.515,1.14
1.06E-01,6.45E-02,7.64E-02,9.14E-02,1.11E-01,,1.06E-01,1.03E+00,1.14,1.28,1.28,1.23,0.488,1.06
1.08E-01,6.29E-02,7.92E-02,8.78E-02,1.09E-01,,1.08E-01,9.90E-01,1.09,1.24,1.21,1.19,0.464,1.02
1.09E-01,6.06E-02,7.17E-02,8.13E-02,1.03E-01,,1.09E-01,9.31E-01,1.05,1.15,1.17,1.13,0.444,0.974
1.11E-01,5.69E-02,6.96E-02,7.64E-02,9.94E-02,,1.11E-01,8.88E-01,1.01,1.13,1.09,1.06,0.42,0.915
1.12E-01,5.60E-02,6.49E-02,7.41E-02,9.86E-02,,1.12E-01,8.50E-01,0.967,1.05,1.04,1.03,0.397,0.896
1.14E-01,5.00E-02,6.33E-02,7.02E-02,9.36E-02,,1.14E-01,8.08E-01,0.914,1.01,0.997,0.951,0.383,0.855
1.15E-01,4.87E-02,5.92E-02,6.93E-02,8.81E-02,,1.15E-01,7.78E-01,0.881,0.98,0.965,0.924,0.364,0.811
1.16E-01,4.93E-02,5.61E-02,6.83E-02,8.41E-02,,1.16E-01,7.36E-01,0.836,0.935,0.904,0.877,0.353,0.771
1.18E-01,4.49E-02,5.93E-02,6.23E-02,8.26E-02,,1.18E-01,7.16E-01,0.807,0.871,0.861,0.831,0.337,0.738
1.19E-01,4.55E-02,5.29E-02,5.93E-02,7.68E-02,,1.19E-01,6.86E-01,0.757,0.857,0.848,0.788,0.321,0.699
1.21E-01,4.43E-02,4.89E-02,5.51E-02,7.51E-02,,1.21E-01,6.49E-01,0.727,0.816,0.801,0.767,0.313,0.689
1.22E-01,3.91E-02,4.82E-02,5.72E-02,6.99E-02,,1.22E-01,6.25E-01,0.699,0.772,0.759,0.73,0.288,0.635
1.24E-01,3.86E-02,4.66E-02,5.22E-02,6.73E-02,,1.24E-01,5.89E-01,0.664,0.74,0.736,0.701,0.282,0.619
1.25E-01,3.34E-02,4.47E-02,5.01E-02,6.78E-02,,1.25E-01,5.63E-01,0.634,0.712,0.709,0.674,0.271,0.58
1.27E-01,3.81E-02,4.31E-02,4.92E-02,6.05E-02,,1.27E-01,5.59E-01,0.612,0.687,0.674,0.651,0.255,0.563
1.28E-01,3.33E-02,4.11E-02,4.67E-02,5.88E-02,,1.28E-01,5.28E-01,0.579,0.638,0.643,0.609,0.251,0.547
1.30E-01,3.25E-02,4.17E-02,4.51E-02,5.70E-02,,1.30E-01,5.15E-01,0.562,0.628,0.63,0.6,0.228,0.522
1.31E-01,3.33E-02,3.88E-02,4.41E-02,5.11E-02,,1.31E-01,4.88E-01,0.533,0.598,0.575,0.569,0.22,0.494
1.33E-01,3.05E-02,3.77E-02,4.05E-02,5.38E-02,,1.33E-01,4.72E-01,0.514,0.563,0.576,0.557,0.222,0.48
1.34E-01,3.08E-02,3.49E-02,4.11E-02,5.13E-02,,1.34E-01,4.55E-01,0.486,0.549,0.558,0.517,0.207,0.459
1.36E-01,2.75E-02,3.41E-02,4.00E-02,5.09E-02,,1.36E-01,4.37E-01,0.468,0.527,0.514,0.501,0.202,0.454
1.37E-01,2.72E-02,3.46E-02,3.73E-02,4.98E-02,,1.37E-01,4.15E-01,0.455,0.505,0.489,0.486,0.189,0.422
1.39E-01,2.72E-02,3.31E-02,3.51E-02,4.72E-02,,1.39E-01,4.03E-01,0.435,0.493,0.472,0.478,0.189,0.409
1.40E-01,2.74E-02,3.28E-02,3.72E-02,4.63E-02,,1.40E-01,3.84E-01,0.421,0.473,0.477,0.438,0.179,0.403
1.41E-01,2.54E-02,3.14E-02,3.46E-02,4.47E-02,,1.41E-01,3.74E-01,0.411,0.448,0.454,0.442,0.175,0.376
1.43E-01,2.53E-02,2.99E-02,3.48E-02,4.31E-02,,1.43E-01,3.56E-01,0.395,0.434,0.44,0.425,0.166,0.363
1.44E-01,2.26E-02,2.78E-02,3.17E-02,4.34E-02,,1.44E-01,3.48E-01,0.377,0.432,0.424,0.407,0.164,0.351
1.46E-01,2.30E-02,3.06E-02,3.24E-02,4.05E-02,,1.46E-01,3.40E-01,0.364,0.413,0.407,0.392,0.158,0.348
1.47E-01,2.14E-02,2.67E-02,3.14E-02,3.89E-02,,1.47E-01,3.27E-01,0.354,0.386,0.388,0.371,0.153,0.329
1.49E-01,2.44E-02,2.61E-02,2.93E-02,3.80E-02,,1.49E-01,3.19E-01,0.332,0.387,0.383,0.356,0.142,0.321
1.50E-01,2.10E-02,2.45E-02,2.80E-02,3.71E-02,,1.50E-01,3.04E-01,0.328,0.358,0.365,0.361,0.141,0.307
1.52E-01,2.06E-02,2.49E-02,2.87E-02,3.74E-02,,1.52E-01,2.96E-01,0.322,0.353,0.349,0.335,0.134,0.293
1.53E-01,2.08E-02,2.31E-02,2.74E-02,3.60E-02,,1.53E-01,2.87E-01,0.311,0.338,0.347,0.337,0.133,0.296
1.55E-01,1.94E-02,2.49E-02,2.69E-02,3.31E-02,,1.55E-01,2.77E-01,0.298,0.332,0.338,0.316,0.129,0.283
1.56E-01,1.88E-02,2.45E-02,2.71E-02,3.21E-02,,1.56E-01,2.67E-01,0.295,0.32,0.327,0.301,0.125,0.263
1.58E-01,1.87E-02,2.36E-02,2.43E-02,3.28E-02,,1.58E-01,2.63E-01,0.283,0.305,0.314,0.3,0.12,0.267
1.59E-01,2.00E-02,2.10E-02,2.33E-02,3.31E-02,,1.59E-01,2.47E-01,0.271,0.302,0.297,0.295,0.116,0.251
1.61E-01,1.71E-02,2.20E-02,2.54E-02,3.01E-02,,1.61E-01,2.43E-01,0.257,0.291,0.295,0.28,0.111,0.247
1.62E-01,1.77E-02,2.11E-02,2.39E-02,3.16E-02,,1.62E-01,2.37E-01,0.25,0.285,0.289,0.265,0.108,0.236
1.64E-01,1.75E-02,2.00E-02,2.32E-02,3.16E-02,,1.64E-01,2.30E-01,0.238,0.274,0.274,0.26,0.107,0.228
1.65E-01,1.67E-02,2.04E-02,2.20E-02,2.87E-02,,1.65E-01,2.21E-01,0.245,0.27,0.269,0.251,0.0999,0.223
1.66E-01,1.61E-02,1.97E-02,2.21E-02,2.86E-02,,1.66E-01,2.15E-01,0.23,0.252,0.252,0.247,0.0979,0.214
1.68E-01,1.59E-02,1.83E-02,2.11E-02,2.87E-02,,1.68E-01,2.05E-01,0.227,0.251,0.249,0.23,0.0976,0.206
1.69E-01,1.49E-02,1.88E-02,2.06E-02,2.66E-02,,1.69E-01,2.03E-01,0.223,0.239,0.241,0.233,0.0911,0.202
1.71E-01,1.42E-02,1.84E-02,1.96E-02,2.88E-02,,1.71E-01,2.06E-01,0.213,0.228,0.236,0.224,0.0889,0.201
1.72E-01,1.46E-02,1.83E-02,1.91E-02,2.63E-02,,1.72E-01,1.93E-01,0.204,0.228,0.238,0.221,0.0907,0.19
1.74E-01,1.44E-02,1.78E-02,1.98E-02,2.69E-02,,1.74E-01,1.86E-01,0.196,0.219,0.223,0.215,0.0867,0.189
1.75E-01,1.39E-02,1.75E-02,1.91E-02,2.58E-02,,1.75E-01,1.80E-01,0.196,0.213,0.223,0.207,0.084,0.186
1.77E-01,1.21E-02,1.70E-02,2.03E-02,2.71E-02,,1.77E-01,1.73E-01,0.192,0.212,0.21,0.206,0.0831,0.18
1.78E-01,1.35E-02,1.76E-02,1.90E-02,2.54E-02,,1.78E-01,1.79E-01,0.183,0.208,0.204,0.193,0.0787,0.17
1.80E-01,1.35E-02,1.54E-02,1.88E-02,2.41E-02,,1.80E-01,1.72E-01,0.181,0.207,0.194,0.198,0.0784,0.168
1.81E-01,1.31E-02,1.59E-02,2.04E-02,2.37E-02,,1.81E-01,1.59E-01,0.176,0.194,0.195,0.183,0.0771,0.167
1.83E-01,1.19E-02,1.50E-02,1.86E-02,2.49E-02,,1.83E-01,1.64E-01,0.172,0.193,0.19,0.171,0.0723,0.161
1.84E-01,1.29E-02,1.61E-02,1.76E-02,2.32E-02,,1.84E-01,1.54E-01,0.166,0.188,0.189,0.178,0.072,0.155
1.86E-01,1.27E-02,1.54E-02,1.80E-02,2.38E-02,,1.86E-01,1.55E-01,0.159,0.183,0.185,0.177,0.0695,0.152
1.87E-01,1.30E-02,1.51E-02,1.74E-02,2.38E-02,,1.87E-01,1.47E-01,0.158,0.174,0.178,0.164,0.0689,0.151
1.89E-01,1.15E-02,1.55E-02,1.77E-02,2.26E-02,,1.89E-01,1.42E-01,0.153,0.167,0.175,0.163,0.0648,0.144
1.90E-01,1.27E-02,1.56E-02,1.62E-02,2.20E-02,,1.90E-01,1.45E-01,0.152,0.165,0.172,0.158,0.0663,0.14
1.91E-01,1.14E-02,1.40E-02,1.57E-02,2.16E-02,,1.91E-01,1.36E-01,0.147,0.157,0.164,0.152,0.0606,0.139
1.93E-01,1.26E-02,1.39E-02,1.59E-02,2.08E-02,,1.93E-01,1.38E-01,0.145,0.162,0.163,0.155,0.0621,0.14
1.94E-01,1.13E-02,1.52E-02,1.62E-02,2.25E-02,,1.94E-01,1.29E-01,0.141,0.153,0.155,0.146,0.0623,0.136
1.96E-01,1.14E-02,1.41E-02,1.56E-02,2.07E-02,,1.96E-01,1.29E-01,0.131,0.15,0.152,0.147,0.0586,0.125
1.97E-01,1.09E-02,1.31E-02,1.55E-02,2.34E-02,,1.97E-01,1.32E-01,0.13,0.147,0.146,0.135,0.058,0.127
1.99E-01,9.80E-03,1.48E-02,1.53E-02,2.08E-02,,1.99E-01,1.22E-01,0.133,0.14,0.146,0.135,0.0578,0.126
2.00E-01,1.01E-02,1.34E-02,1.45E-02,2.08E-02,,2.00E-01,1.26E-01,0.129,0.142,0.142,0.133,0.0557,0.122
2.02E-01,1.03E-02,1.33E-02,1.54E-02,1.98E-02,,2.02E-01,1.20E-01,0.125,0.137,0.143,0.132,0.052,0.116
2.03E-01,1.05E-02,1.36E-02,1.52E-02,2.03E-02,,2.03E-01,1.10E-01,0.122,0.13,0.134,0.131,0.0513,0.116
2.05E-01,1.10E-02,1.33E-02,1.57E-02,2.04E-02,,2.05E-01,1.11E-01,0.119,0.13,0.135,0.122,0.052,0.114
2.06E-01,1.19E-02,1.35E-02,1.48E-02,1.84E-02,,2.06E-01,1.09E-01,0.114,0.133,0.131,0.122,0.0509,0.112
2.08E-01,9.61E-03,1.39E-02,1.40E-02,1.96E-02,,2.08E-01,1.10E-01,0.113,0.129,0.13,0.119,0.0506,0.108
2.09E-01,1.08E-02,1.23E-02,1.33E-02,1.80E-02,,2.09E-01,1.10E-01,0.117,0.126,0.131,0.12,0.0494,0.1
2.11E-01,9.62E-03,1.26E-02,1.43E-02,2.02E-02,,2.11E-01,1.06E-01,0.115,0.12,0.123,0.12,0.0489,0.103
2.12E-01,9.36E-03,1.30E-02,1.32E-02,1.85E-02,,2.12E-01,1.05E-01,0.109,0.115,0.121,0.111,0.047,0.101
2.14E-01,9.32E-03,1.24E-02,1.37E-02,1.83E-02,,2.14E-01,1.05E-01,0.108,0.115,0.121,0.115,0.0473,0.0972
2.15E-01,1.04E-02,1.18E-02,1.39E-02,1.97E-02,,2.15E-01,9.52E-02,0.106,0.111,0.117,0.105,0.0462,0.0966
2.16E-01,9.48E-03,1.19E-02,1.30E-02,1.69E-02,,2.16E-01,9.83E-02,0.104,0.108,0.116,0.104,0.047,0.0917
2.18E-01,9.46E-03,1.13E-02,1.32E-02,1.82E-02,,2.18E-01,9.29E-02,0.0998,0.105,0.118,0.109,0.0428,0.0969
2.19E-01,9.96E-03,1.15E-02,1.21E-02,1.84E-02,,2.19E-01,8.98E-02,0.0979,0.106,0.106,0.102,0.0438,0.0902
2.21E-01,9.77E-03,1.15E-02,1.42E-02,1.73E-02,,2.21E-01,9.33E-02,0.0968,0.107,0.104,0.101,0.0425,0.0901
2.22E-01,9.20E-03,1.07E-02,1.27E-02,1.79E-02,,2.22E-01,9.67E-02,0.0971,0.1,0.105,0.101,0.0419,0.0877
2.24E-01,9.07E-03,1.10E-02,1.32E-02,1.80E-02,,2.24E-01,8.93E-02,0.095,0.0972,0.105,0.0939,0.0404,0.0847
2.25E-01,8.85E-03,1.16E-02,1.33E-02,1.76E-02,,2.25E-01,8.99E-02,0.0915,0.102,0.106,0.0983,0.0403,0.0796
2.27E-01,9.29E-03,1.12E-02,1.33E-02,1.75E-02,,2.27E-01,8.61E-02,0.09,0.0948,0.104,0.091,0.0408,0.0859
2.28E-01,9.10E-03,1.16E-02,1.23E-02,1.69E-02,,2.28E-01,8.60E-02,0.0872,0.0964,0.1,0.093,0.0391,0.0815
2.30E-01,8.69E-03,1.16E-02,1.27E-02,1.54E-02,,2.30E-01,8.10E-02,0.0843,0.0967,0.101,0.0898,0.038,0.0803
2.31E-01,9.24E-03,1.12E-02,1.36E-02,1.71E-02,,2.31E-01,8.35E-02,0.0865,0.0906,0.0982,0.0915,0.0382,0.0787
2.33E-01,8.94E-03,1.13E-02,1.22E-02,1.60E-02,,2.33E-01,8.09E-02,0.0838,0.0872,0.0925,0.0853,0.0376,0.0762
2.34E-01,8.57E-03,1.00E-02,1.23E-02,1.67E-02,,2.34E-01,7.82E-02,0.0833,0.0928,0.0947,0.0863,0.0374,0.0785
2.36E-01,9.50E-03,1.10E-02,1.35E-02,1.58E-02,,2.36E-01,8.01E-02,0.0814,0.0872,0.09,0.0861,0.0347,0.0754
2.37E-01,7.93E-03,1.11E-02,1.15E-02,1.74E-02,,2.37E-01,8.04E-02,0.0784,0.0819,0.0927,0.0826,0.0372,0.0774
2.39E-01,8.93E-03,1.07E-02,1.27E-02,1.63E-02,,2.39E-01,7.95E-02,0.079,0.086,0.0902,0.0817,0.0339,0.0736
2.40E-01,8.97E-03,1.09E-02,1.17E-02,1.60E-02,,2.40E-01,7.50E-02,0.0826,0.0862,0.0889,0.0782,0.0347,0.0714
2.41E-01,9.30E-03,1.13E-02,1.21E-02,1.59E-02,,2.41E-01,7.66E-02,0.0748,0.0811,0.0831,0.0798,0.0325,0.0727
2.43E-01,8.70E-03,1.09E-02,1.24E-02,1.74E-02,,2.43E-01,7.13E-02,0.0752,0.0811,0.0829,0.0773,0.0332,0.0717
2.44E-01,8.06E-03,1.11E-02,1.19E-02,1.68E-02,,2.44E-01,7.43E-02,0.0757,0.0785,0.0855,0.0762,0.0311,0.0707
2.46E-01,8.23E-03,9.82E-03,1.20E-02,1.68E-02,,2.46E-01,7.25E-02,0.073,0.0792,0.0831,0.076,0.033,0.0686
2.47E-01,8.00E-03,1.06E-02,1.31E-02,1.76E-02,,2.47E-01,6.90E-02,0.0732,0.0766,0.0848,0.0757,0.0334,0.0683
2.49E-01,8.67E-03,9.75E-03,1.24E-02,1.65E-02,,2.49E-01,6.98E-02,0.0729,0.0791,0.0815,0.0752,0.0318,0.0672
2.50E-01,8.92E-03,1.05E-02,1.24E-02,1.45E-02,,2.50E-01,6.74E-02,0.071,0.078,0.0787,0.0728,0.0324,0.0665
2.52E-01,8.49E-03,1.06E-02,1.22E-02,1.67E-02,,2.52E-01,6.36E-02,0.0714,0.0753,0.0779,0.0723,0.0316,0.0648
2.53E-01,8.48E-03,1.03E-02,1.24E-02,1.70E-02,,2.53E-01,6.65E-02,0.0669,0.0729,0.0784,0.0689,0.0301,0.0645
2.55E-01,8.22E-03,1.14E-02,1.15E-02,1.59E-02,,2.55E-01,6.31E-02,0.0687,0.0715,0.0787,0.0709,0.0306,0.0614
2.56E-01,8.78E-03,1.03E-02,1.16E-02,1.55E-02,,2.56E-01,6.61E-02,0.0699,0.07,0.0766,0.0694,0.0302,0.0632
2.58E-01,8.07E-03,9.88E-03,1.19E-02,1.54E-02,,2.58E-01,6.43E-02,0.0684,0.0681,0.0778,0.0706,0.0293,0.0615
2.59E-01,8.68E-03,9.18E-03,1.25E-02,1.43E-02,,2.59E-01,6.40E-02,0.0662,0.0694,0.0756,0.0686,0.0308,0.061
2.61E-01,8.37E-03,9.87E-03,1.10E-02,1.69E-02,,2.61E-01,6.30E-02,0.0652,0.0684,0.0727,0.065,0.0309,0.0598
2.62E-01,8.10E-03,9.85E-03,1.10E-02,1.50E-02,,2.62E-01,6.21E-02,0.064,0.0663,0.0731,0.0652,0.0279,0.0588
2.64E-01,8.42E-03,1.11E-02,1.19E-02,1.63E-02,,2.64E-01,6.38E-02,0.067,0.0677,0.0728,0.0655,0.0277,0.0561
2.65E-01,7.87E-03,1.03E-02,1.15E-02,1.54E-02,,2.65E-01,5.86E-02,0.0589,0.0648,0.0687,0.0637,0.0275,0.0584
2.66E-01,8.15E-03,1.07E-02,1.12E-02,1.41E-02,,2.66E-01,6.19E-02,0.0603,0.0631,0.0726,0.062,0.0286,0.0559
2.68E-01,7.98E-03,9.40E-03,1.17E-02,1.56E-02,,2.68E-01,5.79E-02,0.0638,0.0631,0.0711,0.0636,0.0258,0.0536
2.69E-01,7.72E-03,1.05E-02,1.17E-02,1.62E-02,,2.69E-01,6.01E-02,0.0609,0.0647,0.0665,0.0606,0.0255,0.0556
2.71E-01,7.20E-03,1.12E-02,1.15E-02,1.54E-02,,2.71E-01,5.80E-02,0.0597,0.0645,0.0707,0.0596,0.0257,0.0559
2.72E-01,8.31E-03,1.01E-02,1.13E-02,1.67E-02,,2.72E-01,5.47E-02,0.06,0.0598,0.068,0.06,0.0251,0.054
2.74E-01,8.00E-03,1.11E-02,1.09E-02,1.51E-02,,2.74E-01,5.89E-02,0.0611,0.061,0.0685,0.0558,0.026,0.0542
2.75E-01,8.44E-03,1.08E-02,1.05E-02,1.50E-02,,2.75E-01,5.60E-02,0.0605,0.0584,0.0654,0.0583,0.0269,0.054
2.77E-01,7.56E-03,1.02E-02,1.16E-02,1.53E-02,,2.77E-01,5.53E-02,0.0583,0.0625,0.068,0.0599,0.0262,0.0517
2.78E-01,7.79E-03,9.93E-03,1.04E-02,1.42E-02,,2.78E-01,5.30E-02,0.0586,0.0587,0.064,0.0589,0.0258,0.0525
2.80E-01,8.62E-03,9.57E-03,1.17E-02,1.53E-02,,2.80E-01,5.15E-02,0.0559,0.0581,0.0669,0.0574,0.0258,0.0507
2.81E-01,8.07E-03,9.73E-03,1.09E-02,1.49E-02,,2.81E-01,5.43E-02,0.0594,0.0586,0.0611,0.055,0.0255,0.0498
2.83E-01,7.98E-03,1.01E-02,1.10E-02,1.52E-02,,2.83E-01,5.35E-02,0.0585,0.0558,0.0648,0.0567,0.025,0.0499
2.84E-01,7.72E-03,1.01E-02,1.15E-02,1.41E-02,,2.84E-01,5.18E-02,0.0558,0.0547,0.0649,0.0551,0.0244,0.0525
2.86E-01,7.88E-03,9.71E-03,1.20E-02,1.55E-02,,2.86E-01,5.24E-02,0.0566,0.0559,0.0642,0.0547,0.025,0.0507
2.87E-01,7.88E-03,9.86E-03,1.06E-02,1.46E-02,,2.87E-01,5.33E-02,0.0556,0.056,0.0607,0.0536,0.0247,0.0489
2.89E-01,7.65E-03,9.51E-03,1.15E-02,1.43E-02,,2.89E-01,5.13E-02,0.0559,0.0553,0.0617,0.0544,0.0243,0.0487
2.90E-01,7.76E-03,9.99E-03,1.17E-02,1.58E-02,,2.90E-01,5.06E-02,0.0542,0.0542,0.0616,0.053,0.0237,0.0494
2.91E-01,7.49E-03,9.55E-03,1.07E-02,1.46E-02,,2.91E-01,4.79E-02,0.0542,0.054,0.0607,0.0525,0.0227,0.0475
2.93E-01,7.15E-03,9.53E-03,1.18E-02,1.58E-02,,2.93E-01,5.14E-02,0.0552,0.0515,0.0578,0.0521,0.0237,0.0485
2.94E-01,7.40E-03,1.03E-02,1.12E-02,1.49E-02,,2.94E-01,4.95E-02,0.0564,0.0516,0.0605,0.0519,0.0236,0.0484
2.96E-01,7.65E-03,9.18E-03,1.09E-02,1.48E-02,,2.96E-01,4.87E-02,0.0557,0.0508,0.0572,0.049,0.0235,0.0465
2.97E-01,7.94E-03,9.33E-03,1.12E-02,1.46E-02,,2.97E-01,5.00E-02,0.0538,0.0509,0.0583,0.0516,0.0238,0.0436
2.99E-01,8.03E-03,9.66E-03,1.12E-02,1.46E-02,,2.99E-01,4.98E-02,0.0526,0.053,0.0598,0.0502,0.0234,0.0477
3.00E-01,8.13E-03,1.01E-02,1.11E-02,1.52E-02,,3.00E-01,4.86E-02,0.0508,0.0522,0.0586,0.0532,0.023,0.0446
3.02E-01,7.80E-03,9.05E-03,1.07E-02,1.48E-02,,3.02E-01,4.71E-02,0.0511,0.0532,0.0591,0.0506,0.0221,0.0448
3.03E-01,7.58E-03,9.71E-03,1.14E-02,1.51E-02,,3.03E-01,5.00E-02,0.0526,0.048,0.0565,0.0463,0.0232,0.0455
3.05E-01,8.12E-03,9.63E-03,1.04E-02,1.57E-02,,3.05E-01,4.74E-02,0.0541,0.0491,0.06,0.0485,0.0218,0.0436
3.06E-01,7.76E-03,9.65E-03,1.14E-02,1.48E-02,,3.06E-01,4.84E-02,0.0497,0.0464,0.0576,0.0478,0.0227,0.0437
3.08E-01,7.25E-03,1.01E-02,1.13E-02,1.49E-02,,3.08E-01,4.58E-02,0.0508,0.0486,0.0561,0.049,0.0226,0.0458
3.09E-01,7.55E-03,1.04E-02,1.08E-02,1.52E-02,,3.09E-01,4.71E-02,0.0513,0.0504,0.0573,0.0478,0.0223,0.0456
3.11E-01,7.36E-03,9.97E-03,1.08E-02,1.49E-02,,3.11E-01,4.54E-02,0.0489,0.0516,0.0558,0.0468,0.0223,0.0437
3.12E-01,7.36E-03,9.49E-03,1.13E-02,1.49E-02,,3.12E-01,4.51E-02,0.0504,0.046,0.0559,0.0467,0.0225,0.044
3.14E-01,7.49E-03,8.74E-03,1.14E-02,1.42E-02,,3.14E-01,4.46E-02,0.0498,0.049,0.0568,0.0478,0.0214,0.0433
3.15E-01,7.55E-03,9.78E-03,1.09E-02,1.39E-02,,3.15E-01,4.40E-02,0.0492,0.047,0.0562,0.0473,0.0208,0.043
3.16E-01,7.26E-03,9.21E-03,1.05E-02,1.43E-02,,3.16E-01,4.48E-02,0.0494,0.0473,0.0542,0.0467,0.0213,0.0423
3.18E-01,7.13E-03,9.31E-03,1.03E-02,1.48E-02,,3.18E-01,4.37E-02,0.048,0.0461,0.0579,0.0464,0.0215,0.0405
3.19E-01,7.96E-03,9.09E-03,1.04E-02,1.39E-02,,3.19E-01,4.52E-02,0.051,0.0459,0.0552,0.045,0.0207,0.0424
3.21E-01,7.74E-03,9.30E-03,1.14E-02,1.42E-02,,3.21E-01,4.29E-02,0.0483,0.0473,0.0563,0.0436,0.0205,0.0419
3.22E-01,7.49E-03,9.64E-03,1.05E-02,1.38E-02,,3.22E-01,4.43E-02,0.0484,0.045,0.0538,0.044,0.0211,0.0402
3.24E-01,7.48E-03,9.32E-03,1.06E-02,1.46E-02,,3.24E-01,4.16E-02,0.0482,0.0447,0.0545,0.0448,0.0216,0.0409
3.25E-01,7.89E-03,9.14E-03,1.09E-02,1.59E-02,,3.25E-01,4.55E-02,0.0475,0.0461,0.0523,0.0445,0.0215,0.0399
3.27E-01,7.29E-03,9.26E-03,1.14E-02,1.45E-02,,3.27E-01,4.43E-02,0.0469,0.046,0.0505,0.0452,0.022,0.0388
3.28E-01,7.63E-03,9.09E-03,1.14E-02,1.46E-02,,3.28E-01,4.39E-02,0.0476,0.045,0.0531,0.0441,0.019,0.0389
3.30E-01,7.71E-03,9.43E-03,1.03E-02,1.44E-02,,3.30E-01,4.24E-02,0.0476,0.0456,0.0535,0.0436,0.0207,0.041
3.31E-01,7.90E-03,9.26E-03,1.02E-02,1.44E-02,,3.31E-01,4.24E-02,0.0461,0.0449,0.0538,0.0447,0.0207,0.0402
3.33E-01,7.59E-03,9.09E-03,9.88E-03,1.41E-02,,3.33E-01,4.04E-02,0.0473,0.0433,0.0531,0.0425,0.0196,0.0393
3.34E-01,7.65E-03,8.98E-03,1.12E-02,1.49E-02,,3.34E-01,4.17E-02,0.0463,0.0441,0.0512,0.0431,0.0213,0.0401
3.36E-01,7.31E-03,1.01E-02,1.10E-02,1.47E-02,,3.36E-01,4.38E-02,0.046,0.0419,0.0502,0.0427,0.0201,0.038
3.37E-01,7.52E-03,9.06E-03,1.04E-02,1.43E-02,,3.37E-01,4.09E-02,0.0462,0.041,0.0517,0.0415,0.0207,0.0403
3.39E-01,8.13E-03,9.11E-03,1.06E-02,1.40E-02,,3.39E-01,4.09E-02,0.0469,0.0424,0.0502,0.0434,0.0196,0.0392
3.40E-01,7.64E-03,9.55E-03,1.11E-02,1.43E-02,,3.40E-01,4.02E-02,0.0442,0.0421,0.0505,0.0402,0.02,0.0394
3.41E-01,7.30E-03,8.85E-03,1.03E-02,1.45E-02,,3.41E-01,4.07E-02,0.0443,0.045,0.0528,0.041,0.0201,0.0388
3.43E-01,7.15E-03,9.41E-03,1.13E-02,1.48E-02,,3.43E-01,3.92E-02,0.0443,0.0426,0.0487,0.0413,0.0196,0.036
3.44E-01,7.79E-03,1.01E-02,1.09E-02,1.52E-02,,3.44E-01,4.20E-02,0.0462,0.0413,0.0499,0.0409,0.0202,0.0377
3.46E-01,7.72E-03,9.07E-03,1.06E-02,1.47E-02,,3.46E-01,3.85E-02,0.045,0.0415,0.052,0.0412,0.02,0.0363
3.47E-01,7.24E-03,1.02E-02,1.11E-02,1.33E-02,,3.47E-01,4.10E-02,0.045,0.0403,0.0496,0.0406,0.0204,0.0371
3.49E-01,7.24E-03,9.00E-03,1.03E-02,1.43E-02,,3.49E-01,4.04E-02,0.0453,0.0407,0.0505,0.0395,0.0195,0.0378
3.50E-01,6.71E-03,9.05E-03,1.14E-02,1.50E-02,,3.50E-01,3.70E-02,0.0439,0.0407,0.0484,0.0419,0.0196,0.0362
3.52E-01,7.06E-03,9.31E-03,1.02E-02,1.46E-02,,3.52E-01,3.96E-02,0.0461,0.0401,0.0497,0.04,0.0198,0.0383
3.53E-01,7.08E-03,9.63E-03,1.09E-02,1.40E-02,,3.53E-01,3.72E-02,0.0443,0.0398,0.0494,0.041,0.0202,0.0353
3.55E-01,7.36E-03,8.73E-03,1.15E-02,1.30E-02,,3.55E-01,3.73E-02,0.0419,0.0372,0.0506,0.0389,0.02,0.0366
3.56E-01,7.33E-03,8.63E-03,1.05E-02,1.53E-02,,3.56E-01,3.76E-02,0.0458,0.0381,0.0509,0.0389,0.0189,0.0358
3.58E-01,7.26E-03,9.14E-03,1.13E-02,1.45E-02,,3.58E-01,3.84E-02,0.044,0.0383,0.05,0.0372,0.0179,0.0348
3.59E-01,7.76E-03,1.05E-02,9.91E-03,1.33E-02,,3.59E-01,3.85E-02,0.0427,0.0406,0.0464,0.0365,0.0185,0.0354
3.61E-01,7.38E-03,9.02E-03,1.10E-02,1.52E-02,,3.61E-01,3.57E-02,0.0437,0.0384,0.0492,0.0367,0.0187,0.0361
3.62E-01,7.72E-03,8.93E-03,1.04E-02,1.56E-02,,3.62E-01,3.78E-02,0.0455,0.0417,0.0486,0.039,0.0182,0.0342
3.64E-01,6.93E-03,8.80E-03,9.59E-03,1.46E-02,,3.64E-01,4.08E-02,0.042,0.0402,0.0492,0.0388,0.0183,0.0348
3.65E-01,7.48E-03,9.58E-03,1.08E-02,1.45E-02,,3.65E-01,3.83E-02,0.0404,0.0376,0.0478,0.0391,0.0179,0.0343
3.67E-01,7.75E-03,8.40E-03,1.05E-02,1.41E-02,,3.67E-01,4.06E-02,0.0424,0.0399,0.0499,0.0377,0.0186,0.0362
3.68E-01,7.59E-03,8.90E-03,1.02E-02,1.39E-02,,3.68E-01,3.87E-02,0.0428,0.0388,0.0503,0.0397,0.0191,0.0371
3.69E-01,6.64E-03,9.12E-03,1.07E-02,1.32E-02,,3.69E-01,3.60E-02,0.0437,0.0374,0.049,0.0384,0.0189,0.0357
3.71E-01,7.55E-03,9.77E-03,9.82E-03,1.55E-02,,3.71E-01,3.59E-02,0.0416,0.0396,0.051,0.0372,0.0188,0.0344
3.72E-01,7.60E-03,9.37E-03,1.02E-02,1.37E-02,,3.72E-01,3.66E-02,0.0432,0.0366,0.0479,0.038,0.0173,0.0321
3.74E-01,7.51E-03,9.73E-03,9.98E-03,1.49E-02,,3.74E-01,3.42E-02,0.0411,0.0363,0.0492,0.0355,0.0185,0.0363
3.75E-01,7.73E-03,9.98E-03,1.01E-02,1.38E-02,,3.75E-01,3.93E-02,0.0429,0.0382,0.0493,0.0351,0.0179,0.0343
3.77E-01,7.79E-03,9.93E-03,1.10E-02,1.40E-02,,3.77E-01,3.81E-02,0.0409,0.0373,0.0457,0.0352,0.0181,0.0321
3.78E-01,7.19E-03,9.39E-03,1.11E-02,1.42E-02,,3.78E-01,3.92E-02,0.0403,0.0362,0.0473,0.0368,0.0179,0.0334
3.80E-01,7.64E-03,9.74E-03,9.67E-03,1.35E-02,,3.80E-01,3.60E-02,0.0394,0.0359,0.0468,0.0343,0.0172,0.0354
3.81E-01,6.93E-03,9.63E-03,1.15E-02,1.32E-02,,3.81E-01,3.52E-02,0.0406,0.0335,0.0485,0.0361,0.0166,0.0338
3.83E-01,8.28E-03,9.33E-03,1.01E-02,1.41E-02,,3.83E-01,3.25E-02,0.0406,0.0386,0.0492,0.0366,0.0187,0.0341
3.84E-01,8.25E-03,9.26E-03,1.05E-02,1.54E-02,,3.84E-01,3.53E-02,0.0406,0.0384,0.0472,0.0361,0.0174,0.0311
3.86E-01,7.73E-03,8.35E-03,1.09E-02,1.47E-02,,3.86E-01,3.78E-02,0.0386,0.0363,0.0486,0.0367,0.0181,0.0346
3.87E-01,7.26E-03,8.70E-03,1.05E-02,1.45E-02,,3.87E-01,3.51E-02,0.0403,0.0381,0.047,0.0366,0.0171,0.03
3.89E-01,7.03E-03,9.33E-03,1.06E-02,1.46E-02,,3.89E-01,3.39E-02,0.0421,0.0384,0.0439,0.0365,0.0171,0.0333
3.90E-01,7.55E-03,9.43E-03,1.06E-02,1.46E-02,,3.90E-01,3.68E-02,0.0409,0.0353,0.0483,0.0364,0.0166,0.0341
3.92E-01,6.93E-03,8.71E-03,1.06E-02,1.39E-02,,3.92E-01,3.60E-02,0.0428,0.0358,0.0474,0.0342,0.0171,0.0342
3.93E-01,7.17E-03,8.51E-03,1.06E-02,1.48E-02,,3.93E-01,3.51E-02,0.0412,0.0391,0.0462,0.0344,0.0166,0.0313
3.94E-01,7.08E-03,8.87E-03,1.07E-02,1.44E-02,,3.94E-01,3.32E-02,0.0412,0.0366,0.0442,0.0352,0.0176,0.0323
3.96E-01,6.67E-03,8.74E-03,1.13E-02,1.39E-02,,3.96E-01,3.47E-02,0.0377,0.0388,0.046,0.0344,0.0171,0.0341
3.97E-01,7.29E-03,9.25E-03,1.08E-02,1.41E-02,,3.97E-01,3.56E-02,0.039,0.0361,0.0457,0.0359,0.0163,0.0334
3.99E-01,7.12E-03,8.99E-03,1.06E-02,1.32E-02,,3.99E-01,3.72E-02,0.0392,0.0362,0.0442,0.0351,0.0162,0.0325
4.10E-01,7.86E-03,8.97E-03,1.01E-02,1.34E-02,,4.10E-01,3.28E-02,0.0361,0.0321,0.0404,0.033,0.0164,0.0297
4.14E-01,7.83E-03,8.87E-03,9.94E-03,1.34E-02,,4.14E-01,3.23E-02,0.0352,0.0322,0.0402,0.032,0.0167,0.0296
4.18E-01,7.78E-03,8.89E-03,1.03E-02,1.34E-02,,4.18E-01,3.10E-02,0.0349,0.0316,0.0395,0.0324,0.0157,0.0284
4.22E-01,7.84E-03,8.88E-03,1.02E-02,1.32E-02,,4.23E-01,3.18E-02,0.0357,0.032,0.039,0.0331,0.0153,0.0285
4.27E-01,7.80E-03,8.79E-03,1.02E-02,1.31E-02,,4.27E-01,3.06E-02,0.0352,0.0323,0.0402,0.0322,0.0154,0.0294
4.31E-01,8.01E-03,8.91E-03,9.92E-03,1.35E-02,,4.31E-01,3.05E-02,0.0343,0.0313,0.0395,0.0311,0.0152,0.0295
4.35E-01,7.83E-03,8.80E-03,1.01E-02,1.31E-02,,4.35E-01,3.05E-02,0.0345,0.0317,0.0381,0.0314,0.0153,0.0292
4.39E-01,7.73E-03,8.70E-03,9.87E-03,1.31E-02,,4.39E-01,2.98E-02,0.0343,0.0304,0.0391,0.0313,0.0151,0.029
4.43E-01,7.70E-03,9.09E-03,1.00E-02,1.35E-02,,4.43E-01,3.05E-02,0.0343,0.0317,0.039,0.031,0.0144,0.0286
4.47E-01,7.70E-03,8.80E-03,1.02E-02,1.31E-02,,4.47E-01,2.89E-02,0.0343,0.0315,0.0387,0.0308,0.0146,0.0285
4.51E-01,7.88E-03,8.58E-03,1.03E-02,1.35E-02,,4.52E-01,3.02E-02,0.033,0.0307,0.0385,0.0315,0.0147,0.0278
4.56E-01,7.77E-03,8.81E-03,1.02E-02,1.31E-02,,4.56E-01,3.05E-02,0.0342,0.0307,0.0398,0.0318,0.0148,0.0289
4.60E-01,7.73E-03,8.85E-03,1.01E-02,1.33E-02,,4.60E-01,2.99E-02,0.0338,0.0308,0.0382,0.0308,0.0148,0.0289
4.64E-01,7.75E-03,8.82E-03,9.99E-03,1.31E-02,,4.64E-01,2.95E-02,0.0343,0.0307,0.0373,0.0307,0.0146,0.0284
4.68E-01,7.82E-03,8.70E-03,9.98E-03,1.31E-02,,4.68E-01,3.03E-02,0.0324,0.0302,0.0377,0.03,0.0147,0.0283
4.72E-01,7.73E-03,8.81E-03,1.00E-02,1.30E-02,,4.72E-01,2.96E-02,0.0335,0.0312,0.0386,0.0302,0.014,0.0272
4.76E-01,7.76E-03,8.86E-03,1.01E-02,1.33E-02,,4.76E-01,2.89E-02,0.0337,0.0316,0.0375,0.0297,0.0143,0.0274
4.81E-01,7.86E-03,8.81E-03,1.01E-02,1.33E-02,,4.81E-01,2.92E-02,0.0335,0.0305,0.0392,0.0305,0.0144,0.0273
4.85E-01,7.76E-03,8.74E-03,1.03E-02,1.33E-02,,4.85E-01,2.99E-02,0.0335,0.03,0.0378,0.0311,0.0146,0.0276
4.89E-01,7.77E-03,8.93E-03,9.96E-03,1.33E-02,,4.89E-01,2.93E-02,0.033,0.0295,0.0374,0.0306,0.0142,0.0278
4.93E-01,7.80E-03,8.67E-03,1.01E-02,1.34E-02,,4.93E-01,2.90E-02,0.0328,0.0293,0.0378,0.0304,0.0139,0.0276
4.97E-01,7.84E-03,8.60E-03,1.01E-02,1.34E-02,,4.97E-01,2.98E-02,0.0325,0.0304,0.0378,0.0302,0.0146,0.0273
5.01E-01,7.99E-03,8.97E-03,1.02E-02,1.33E-02,,5.01E-01,2.87E-02,0.0334,0.0289,0.0377,0.0302,0.0141,0.0277
5.05E-01,7.98E-03,8.95E-03,1.03E-02,1.34E-02,,5.06E-01,2.82E-02,0.033,0.0297,0.0377,0.0303,0.0149,0.0282
5.10E-01,7.67E-03,8.97E-03,1.02E-02,1.35E-02,,5.10E-01,2.96E-02,0.0326,0.0305,0.0375,0.0292,0.014,0.0276
5.14E-01,7.87E-03,8.84E-03,1.03E-02,1.34E-02,,5.14E-01,2.84E-02,0.0333,0.0304,0.0371,0.0302,0.014,0.0281
5.18E-01,7.96E-03,8.72E-03,1.03E-02,1.38E-02,,5.18E-01,2.82E-02,0.0331,0.0301,0.0375,0.03,0.0144,0.028
5.22E-01,7.93E-03,8.72E-03,1.04E-02,1.35E-02,,5.22E-01,2.93E-02,0.0334,0.0306,0.0374,0.0292,0.0139,0.0266
5.26E-01,7.92E-03,9.00E-03,1.03E-02,1.35E-02,,5.26E-01,2.86E-02,0.0331,0.0303,0.0375,0.0304,0.0146,0.0277
5.30E-01,8.09E-03,9.06E-03,1.04E-02,1.34E-02,,5.30E-01,2.85E-02,0.0336,0.0305,0.0376,0.0301,0.0144,0.0274
5.35E-01,7.81E-03,8.94E-03,1.04E-02,1.37E-02,,5.35E-01,2.79E-02,0.0333,0.0293,0.0377,0.0299,0.0142,0.0281
5.39E-01,7.95E-03,9.01E-03,1.04E-02,1.37E-02,,5.39E-01,2.82E-02,0.0321,0.0313,0.0379,0.0292,0.0142,0.0277
5.43E-01,8.14E-03,9.19E-03,1.04E-02,1.35E-02,,5.43E-01,2.77E-02,0.033,0.0303,0.0373,0.0298,0.0138,0.0274
5.47E-01,8.10E-03,9.00E-03,1.06E-02,1.35E-02,,5.47E-01,2.86E-02,0.0333,0.0303,0.0381,0.0301,0.0139,0.0277
5.51E-01,8.09E-03,9.06E-03,1.03E-02,1.36E-02,,5.51E-01,2.85E-02,0.0342,0.0306,0.0383,0.0295,0.0138,0.0268
5.55E-01,8.29E-03,8.97E-03,1.04E-02,1.38E-02,,5.55E-01,2.89E-02,0.0334,0.0312,0.037,0.0302,0.0144,0.0279
5.59E-01,7.93E-03,9.08E-03,1.06E-02,1.35E-02,,5.60E-01,2.90E-02,0.0327,0.0304,0.0377,0.0304,0.014,0.0281
5.64E-01,8.13E-03,9.21E-03,1.06E-02,1.38E-02,,5.64E-01,2.76E-02,0.0329,0.0311,0.0384,0.0308,0.0138,0.0281
5.68E-01,8.17E-03,9.06E-03,1.05E-02,1.37E-02,,5.68E-01,2.82E-02,0.0333,0.0321,0.038,0.0306,0.0146,0.027
5.72E-01,8.24E-03,9.39E-03,1.06E-02,1.39E-02,,5.72E-01,2.84E-02,0.0341,0.0313,0.0375,0.0301,0.014,0.0282
5.76E-01,8.24E-03,9.18E-03,1.07E-02,1.38E-02,,5.76E-01,2.89E-02,0.0335,0.0318,0.0382,0.0297,0.0141,0.0283
5.80E-01,8.14E-03,9.04E-03,1.06E-02,1.39E-02,,5.80E-01,2.87E-02,0.0342,0.0311,0.039,0.0303,0.0142,0.0279
5.84E-01,8.24E-03,9.13E-03,1.06E-02,1.39E-02,,5.84E-01,#VALUE!,#VALUE!,#VALUE!,#VALUE!,#VALUE!,#VALUE!,#VALUE!
5.89E-01,8.40E-03,9.25E-03,1.06E-02,1.41E-02,,5.89E-01,#VALUE!,#VALUE!,#VALUE!,#VALUE!,#VALUE!,#VALUE!,#VALUE!
5.93E-01,8.26E-03,9.43E-03,1.08E-02,1.41E-02,,5.93E-01,#VALUE!,#VALUE!,#VALUE!,#VALUE!,#VALUE!,#VALUE!,#VALUE!
5.97E-01,8.36E-03,9.24E-03,1.09E-02,1.41E-02,,5.97E-01,#VALUE!,#VALUE!,#VALUE!,#VALUE!,#VALUE!,#VALUE!,#VALUE!
6.01E-01,8.30E-03,9.36E-03,1.09E-02,1.39E-02,,6.01E-01,2.85E-02,0.0337,0.0326,0.0391,0.0309,0.0143,0.0285
6.05E-01,8.39E-03,9.27E-03,1.09E-02,1.41E-02,,6.05E-01,2.86E-02,0.0338,0.0326,0.0396,0.0312,0.0145,0.0274
6.09E-01,8.43E-03,9.34E-03,1.08E-02,1.41E-02,,6.09E-01,2.90E-02,0.0335,0.0323,0.0396,0.0305,0.0141,0.0279
6.13E-01,8.55E-03,9.52E-03,1.06E-02,1.41E-02,,6.14E-01,2.85E-02,0.0347,0.0325,0.0389,0.0309,0.0145,0.0292
6.18E-01,8.53E-03,9.26E-03,1.11E-02,1.43E-02,,6.18E-01,2.94E-02,0.0347,0.0329,0.0386,0.0311,0.0145,0.0293
[...]
8.46E-01,1.15E-02,1.27E-02,1.45E-02,1.88E-02,,8.46E-01,3.56E-02,0.0444,0.0438,0.0493,0.0413,0.0182,0.0371
8.50E-01,1.15E-02,1.30E-02,1.48E-02,1.92E-02,,8.50E-01,3.48E-02,0.0433,0.0422,0.0499,0.0416,0.0183,0.0374
8.54E-01,1.16E-02,1.29E-02,1.47E-02,1.93E-02,,8.54E-01,3.51E-02,0.0444,0.0443,0.0504,0.0412,0.0184,0.0378
8.58E-01,1.19E-02,1.29E-02,1.51E-02,1.95E-02,,8.59E-01,3.48E-02,0.0441,0.0433,0.0502,0.0411,0.0183,0.0377
8.63E-01,1.19E-02,1.32E-02,1.52E-02,1.93E-02,,8.63E-01,3.52E-02,0.0449,0.0442,0.05,0.0421,0.018,0.0377
8.67E-01,1.20E-02,1.32E-02,1.52E-02,1.94E-02,,8.67E-01,3.54E-02,0.0449,0.0443,0.0498,0.0426,0.0184,0.038
8.71E-01,1.23E-02,1.33E-02,1.54E-02,1.98E-02,,8.71E-01,3.58E-02,0.0449,0.0438,0.0495,0.0415,0.0182,0.0373
8.75E-01,1.24E-02,1.34E-02,1.56E-02,2.00E-02,,8.75E-01,3.57E-02,0.0448,0.0443,0.0499,0.0419,0.0182,0.0379
8.79E-01,1.24E-02,1.33E-02,1.54E-02,2.03E-02,,8.79E-01,3.65E-02,0.045,0.0447,0.051,0.0428,0.0186,0.0382
8.83E-01,1.25E-02,1.35E-02,1.55E-02,2.04E-02,,8.83E-01,3.63E-02,0.045,0.0444,0.0502,0.0421,0.0184,0.0378
8.87E-01,1.28E-02,1.37E-02,1.58E-02,2.03E-02,,8.88E-01,3.71E-02,0.0447,0.044,0.0506,0.0428,0.0185,0.0379
8.92E-01,1.27E-02,1.35E-02,1.58E-02,2.06E-02,,8.92E-01,3.76E-02,0.0446,0.0449,0.0502,0.0419,0.0184,0.0384
8.96E-01,1.29E-02,1.38E-02,1.61E-02,2.08E-02,,8.96E-01,3.72E-02,0.0447,0.0451,0.0493,0.0414,0.0188,0.0375
9.00E-01,1.29E-02,1.40E-02,1.61E-02,2.11E-02,,9.00E-01,3.78E-02,0.0456,0.0448,0.0519,0.0434,0.0186,0.0387
9.04E-01,1.29E-02,1.40E-02,1.64E-02,2.14E-02,,9.04E-01,3.85E-02,0.0464,0.0461,0.0517,0.0423,0.0186,0.0386
9.08E-01,1.32E-02,1.42E-02,1.65E-02,2.13E-02,,9.08E-01,3.83E-02,0.0462,0.0452,0.0515,0.0431,0.0188,0.0383
9.12E-01,1.32E-02,1.44E-02,1.67E-02,2.15E-02,,9.13E-01,3.82E-02,0.0462,0.0455,0.0511,0.0434,0.019,0.0385
9.17E-01,1.36E-02,1.45E-02,1.67E-02,2.17E-02,,9.17E-01,3.91E-02,0.0468,0.0457,0.0514,0.0428,0.0192,0.0383
9.21E-01,1.36E-02,1.45E-02,1.70E-02,2.18E-02,,9.21E-01,3.91E-02,0.0466,0.0446,0.0521,0.0434,0.019,0.0383
9.25E-01,1.36E-02,1.47E-02,1.71E-02,2.19E-02,,9.25E-01,4.02E-02,0.0464,0.0459,0.0522,0.0438,0.019,0.0393
9.29E-01,1.39E-02,1.49E-02,1.74E-02,2.23E-02,,9.29E-01,4.00E-02,0.048,0.0455,0.0527,0.0433,0.0192,0.0398
9.33E-01,1.40E-02,1.49E-02,1.75E-02,2.24E-02,,9.33E-01,4.04E-02,0.047,0.0472,0.0529,0.0444,0.0192,0.0397
9.37E-01,1.43E-02,1.51E-02,1.76E-02,2.26E-02,,9.37E-01,4.06E-02,0.0471,0.0461,0.0526,0.0453,0.0192,0.0387
9.41E-01,1.42E-02,1.52E-02,1.78E-02,2.27E-02,,9.42E-01,4.09E-02,0.0472,0.0459,0.0532,0.044,0.0194,0.0396
9.46E-01,1.45E-02,1.53E-02,1.78E-02,2.32E-02,,9.46E-01,4.20E-02,0.0477,0.0474,0.0528,0.0444,0.0198,0.04
9.50E-01,1.46E-02,1.55E-02,1.82E-02,2.31E-02,,9.50E-01,4.09E-02,0.0479,0.0475,0.054,0.0449,0.0192,0.0402
9.54E-01,1.49E-02,1.56E-02,1.80E-02,2.33E-02,,9.54E-01,4.24E-02,0.0476,0.0473,0.0547,0.0453,0.0195,0.0404
9.58E-01,1.48E-02,1.59E-02,1.86E-02,2.38E-02,,9.58E-01,4.34E-02,0.0489,0.0479,0.055,0.0454,0.0202,0.0408
9.62E-01,1.51E-02,1.61E-02,1.87E-02,2.42E-02,,9.62E-01,4.35E-02,0.0482,0.0476,0.0557,0.0454,0.0199,0.0414
9.66E-01,1.51E-02,1.60E-02,1.88E-02,2.41E-02,,9.67E-01,4.32E-02,0.0482,0.0492,0.0551,0.0457,0.0201,0.0413
9.70E-01,1.52E-02,1.63E-02,1.89E-02,2.46E-02,,9.71E-01,4.39E-02,0.049,0.049,0.0549,0.0466,0.0203,0.041
9.75E-01,1.54E-02,1.64E-02,1.92E-02,2.48E-02,,9.75E-01,4.48E-02,0.0494,0.0504,0.057,0.0458,0.0205,0.0415
9.79E-01,1.60E-02,1.67E-02,1.95E-02,2.52E-02,,9.79E-01,4.49E-02,0.0497,0.0495,0.0564,0.0463,0.0205,0.0417
9.83E-01,1.58E-02,1.66E-02,1.95E-02,2.53E-02,,9.83E-01,4.67E-02,0.0505,0.05,0.0556,0.0471,0.0208,0.0425
9.87E-01,1.62E-02,1.69E-02,1.97E-02,2.56E-02,,9.87E-01,4.70E-02,0.051,0.0503,0.0577,0.0468,0.0206,0.0425
9.91E-01,1.62E-02,1.73E-02,2.02E-02,2.58E-02,,9.91E-01,4.68E-02,0.0514,0.0494,0.0577,0.0481,0.0211,0.0431
9.95E-01,1.66E-02,1.71E-02,2.01E-02,2.62E-02,,9.96E-01,4.69E-02,0.0509,0.0508,0.0573,0.0489,0.0211,0.0436
1.00E+00,1.67E-02,1.73E-02,2.05E-02,2.63E-02,,1.00E+00,4.73E-02,0.0515,0.0502,0.0588,0.0482,0.0211,0.0435
1.00E+00,1.67E-02,1.78E-02,2.08E-02,2.66E-02,,1.00E+00,4.93E-02,0.0528,0.0525,0.0587,0.0494,0.0214,0.044
1.01E+00,1.73E-02,1.81E-02,2.10E-02,2.71E-02,,1.01E+00,4.89E-02,0.0532,0.0523,0.0595,0.0484,0.0219,0.0441
1.01E+00,1.72E-02,1.79E-02,2.13E-02,2.73E-02,,1.01E+00,5.00E-02,0.0531,0.0529,0.0598,0.0486,0.0221,0.0444
1.02E+00,1.75E-02,1.85E-02,2.13E-02,2.76E-02,,1.02E+00,4.92E-02,0.0531,0.0531,0.0613,0.0499,0.0221,0.0447
1.02E+00,1.78E-02,1.84E-02,2.18E-02,2.82E-02,,1.02E+00,5.09E-02,0.054,0.053,0.0615,0.0504,0.0223,0.0464
1.02E+00,1.81E-02,1.86E-02,2.23E-02,2.81E-02,,1.02E+00,5.12E-02,0.0553,0.0539,0.0609,0.0508,0.0224,0.045
1.03E+00,1.85E-02,1.89E-02,2.27E-02,2.84E-02,,1.03E+00,5.17E-02,0.0554,0.055,0.0612,0.0516,0.0229,0.0462
1.03E+00,1.86E-02,1.95E-02,2.25E-02,2.89E-02,,1.03E+00,5.28E-02,0.0557,0.0545,0.0628,0.0522,0.0226,0.0464
1.04E+00,1.87E-02,1.95E-02,2.30E-02,2.94E-02,,1.04E+00,5.40E-02,0.0566,0.0544,0.0625,0.0519,0.0233,0.0474
1.04E+00,1.89E-02,1.95E-02,2.33E-02,2.99E-02,,1.04E+00,5.41E-02,0.0571,0.0554,0.064,0.053,0.0239,0.0475
1.05E+00,1.96E-02,1.99E-02,2.38E-02,3.05E-02,,1.05E+00,5.40E-02,0.0571,0.0564,0.0646,0.053,0.0238,0.0478
1.05E+00,1.96E-02,2.04E-02,2.38E-02,3.04E-02,,1.05E+00,5.55E-02,0.0571,0.0572,0.0649,0.0515,0.0241,0.0482
1.05E+00,2.00E-02,2.05E-02,2.41E-02,3.13E-02,,1.05E+00,5.59E-02,0.06,0.0574,0.0647,0.0555,0.024,0.0492
1.06E+00,2.04E-02,2.09E-02,2.45E-02,3.19E-02,,1.06E+00,5.62E-02,0.0594,0.0585,0.067,0.055,0.0245,0.0502
1.06E+00,2.04E-02,2.11E-02,2.50E-02,3.21E-02,,1.06E+00,5.82E-02,0.06,0.059,0.0665,0.0558,0.0247,0.0511
1.07E+00,2.11E-02,2.12E-02,2.54E-02,3.24E-02,,1.07E+00,5.81E-02,0.0623,0.0615,0.0686,0.0553,0.0249,0.0519
1.07E+00,2.13E-02,2.17E-02,2.59E-02,3.31E-02,,1.07E+00,5.93E-02,0.0611,0.0602,0.0686,0.0562,0.025,0.0508
1.07E+00,2.17E-02,2.22E-02,2.61E-02,3.33E-02,,1.07E+00,5.92E-02,0.0619,0.0613,0.069,0.0572,0.0256,0.0517
1.08E+00,2.21E-02,2.23E-02,2.63E-02,3.35E-02,,1.08E+00,6.13E-02,0.0624,0.0622,0.0714,0.0586,0.0261,0.0518
1.08E+00,2.21E-02,2.30E-02,2.66E-02,3.42E-02,,1.08E+00,6.15E-02,0.0636,0.062,0.0708,0.0594,0.0261,0.0547
1.09E+00,2.26E-02,2.28E-02,2.74E-02,3.49E-02,,1.09E+00,6.21E-02,0.0642,0.0644,0.0727,0.0592,0.0261,0.0539
1.09E+00,2.31E-02,2.31E-02,2.76E-02,3.51E-02,,1.09E+00,6.33E-02,0.066,0.065,0.0743,0.0609,0.0274,0.0551
1.10E+00,2.32E-02,2.38E-02,2.80E-02,3.57E-02,,1.10E+00,6.50E-02,0.0677,0.0651,0.074,0.0612,0.0271,0.0553
1.10E+00,2.38E-02,2.43E-02,2.84E-02,3.61E-02,,1.10E+00,6.48E-02,0.0669,0.0656,0.0746,0.0624,0.0272,0.0551
1.10E+00,2.41E-02,2.43E-02,2.88E-02,3.69E-02,,1.10E+00,6.57E-02,0.0682,0.0657,0.0751,0.0627,0.0273,0.0562
1.11E+00,2.45E-02,2.50E-02,2.93E-02,3.71E-02,,1.11E+00,6.64E-02,0.0675,0.0677,0.0769,0.0634,0.0284,0.0577
1.11E+00,2.51E-02,2.51E-02,2.97E-02,3.82E-02,,1.11E+00,6.86E-02,0.0688,0.0692,0.0772,0.064,0.0277,0.0579
1.12E+00,2.54E-02,2.53E-02,3.04E-02,3.90E-02,,1.12E+00,6.79E-02,0.0699,0.0698,0.079,0.0641,0.0287,0.0586
1.12E+00,2.57E-02,2.60E-02,3.10E-02,3.94E-02,,1.12E+00,7.05E-02,0.0714,0.0705,0.0789,0.0657,0.0291,0.0595
1.12E+00,2.65E-02,2.65E-02,3.10E-02,3.97E-02,,1.12E+00,7.07E-02,0.0721,0.0718,0.0813,0.0672,0.0294,0.0606
1.13E+00,2.70E-02,2.70E-02,3.13E-02,4.04E-02,,1.13E+00,7.29E-02,0.0724,0.072,0.0791,0.0673,0.0302,0.061
1.13E+00,2.72E-02,2.70E-02,3.23E-02,4.08E-02,,1.13E+00,7.32E-02,0.0741,0.0736,0.0842,0.0684,0.0298,0.0617
1.14E+00,2.78E-02,2.77E-02,3.27E-02,4.12E-02,,1.14E+00,7.48E-02,0.0758,0.0739,0.0824,0.0701,0.0314,0.0624
1.14E+00,2.81E-02,2.82E-02,3.37E-02,4.23E-02,,1.14E+00,7.59E-02,0.0768,0.0752,0.0859,0.0716,0.0306,0.0638
1.14E+00,2.89E-02,2.86E-02,3.35E-02,4.28E-02,,1.15E+00,7.70E-02,0.079,0.075,0.086,0.0709,0.0318,0.0639
1.15E+00,2.93E-02,2.89E-02,3.45E-02,4.36E-02,,1.15E+00,7.82E-02,0.0791,0.0779,0.0874,0.0716,0.0319,0.0653
1.15E+00,2.96E-02,2.93E-02,3.47E-02,4.43E-02,,1.15E+00,8.04E-02,0.0793,0.0793,0.0876,0.0734,0.0326,0.0665
1.16E+00,3.02E-02,3.00E-02,3.56E-02,4.47E-02,,1.16E+00,8.08E-02,0.0808,0.0809,0.091,0.0733,0.0329,0.0686
1.16E+00,3.11E-02,3.06E-02,3.65E-02,4.61E-02,,1.16E+00,8.25E-02,0.0808,0.081,0.091,0.0764,0.0327,0.0685
1.17E+00,3.15E-02,3.10E-02,3.66E-02,4.67E-02,,1.17E+00,8.31E-02,0.0848,0.0804,0.0911,0.0755,0.0342,0.0707
1.17E+00,3.20E-02,3.15E-02,3.76E-02,4.73E-02,,1.17E+00,8.45E-02,0.083,0.0835,0.0919,0.0772,0.0336,0.0711
1.17E+00,3.25E-02,3.22E-02,3.81E-02,4.85E-02,,1.17E+00,8.75E-02,0.085,0.0835,0.0933,0.0789,0.0349,0.0716
1.18E+00,3.31E-02,3.27E-02,3.93E-02,4.86E-02,,1.18E+00,8.79E-02,0.0848,0.087,0.0956,0.0809,0.0352,0.0727
1.18E+00,3.39E-02,3.31E-02,3.95E-02,4.98E-02,,1.18E+00,8.98E-02,0.0865,0.0875,0.0988,0.0807,0.0357,0.0732
1.19E+00,3.44E-02,3.36E-02,3.99E-02,5.10E-02,,1.19E+00,9.19E-02,0.0892,0.0899,0.101,0.0828,0.0361,0.0758
1.19E+00,3.53E-02,3.43E-02,4.14E-02,5.17E-02,,1.19E+00,9.18E-02,0.0895,0.091,0.0993,0.0839,0.0366,0.0766
1.19E+00,3.58E-02,3.48E-02,4.18E-02,5.24E-02,,1.19E+00,9.38E-02,0.0903,0.0922,0.101,0.0857,0.0366,0.0763
1.20E+00,3.65E-02,3.58E-02,4.24E-02,5.37E-02,,1.20E+00,9.44E-02,0.0919,0.091,0.104,0.0856,0.0374,0.0789
1.20E+00,3.72E-02,3.69E-02,4.36E-02,5.39E-02,,1.20E+00,9.75E-02,0.0934,0.094,0.104,0.0869,0.038,0.0781
1.21E+00,3.80E-02,3.70E-02,4.42E-02,5.49E-02,,1.21E+00,9.80E-02,0.0964,0.0949,0.107,0.0889,0.0392,0.081
1.21E+00,3.91E-02,3.77E-02,4.48E-02,5.62E-02,,1.21E+00,1.01E-01,0.0994,0.0992,0.108,0.0903,0.0395,0.0826
1.22E+00,3.95E-02,3.85E-02,4.57E-02,5.75E-02,,1.22E+00,1.01E-01,0.0989,0.0995,0.108,0.092,0.0401,0.084
1.22E+00,4.07E-02,3.93E-02,4.69E-02,5.83E-02,,1.22E+00,1.03E-01,0.102,0.102,0.112,0.0931,0.0402,0.0846
1.22E+00,4.13E-02,3.94E-02,4.78E-02,5.92E-02,,1.22E+00,1.04E-01,0.101,0.101,0.112,0.0949,0.0415,0.0867
1.23E+00,4.23E-02,4.02E-02,4.84E-02,6.08E-02,,1.23E+00,1.07E-01,0.105,0.103,0.115,0.0952,0.0415,0.0871
1.23E+00,4.29E-02,4.14E-02,4.93E-02,6.12E-02,,1.23E+00,1.12E-01,0.105,0.106,0.117,0.0967,0.0426,0.0899
1.24E+00,4.33E-02,4.18E-02,5.05E-02,6.20E-02,,1.24E+00,1.12E-01,0.107,0.109,0.118,0.0982,0.0426,0.0894
1.24E+00,4.49E-02,4.24E-02,5.09E-02,6.41E-02,,1.24E+00,1.13E-01,0.108,0.109,0.118,0.101,0.0434,0.0925
1.24E+00,4.52E-02,4.36E-02,5.22E-02,6.45E-02,,1.24E+00,1.17E-01,0.109,0.113,0.123,0.101,0.0436,0.0939
1.25E+00,4.63E-02,4.44E-02,5.33E-02,6.64E-02,,1.25E+00,1.18E-01,0.115,0.113,0.122,0.105,0.0445,0.0959
1.25E+00,4.73E-02,4.54E-02,5.44E-02,6.68E-02,,1.25E+00,1.19E-01,0.116,0.115,0.127,0.104,0.0454,0.0951
1.26E+00,4.78E-02,4.56E-02,5.47E-02,6.86E-02,,1.26E+00,1.21E-01,0.117,0.117,0.129,0.105,0.0458,0.0996
1.26E+00,4.88E-02,4.64E-02,5.54E-02,6.92E-02,,1.26E+00,1.25E-01,0.115,0.119,0.128,0.108,0.0466,0.099
1.27E+00,5.01E-02,4.74E-02,5.63E-02,7.02E-02,,1.27E+00,1.26E-01,0.118,0.12,0.131,0.111,0.0474,0.101
1.27E+00,5.05E-02,4.82E-02,5.80E-02,7.19E-02,,1.27E+00,1.27E-01,0.123,0.122,0.131,0.112,0.0485,0.102
1.27E+00,5.15E-02,4.87E-02,5.92E-02,7.30E-02,,1.27E+00,1.31E-01,0.125,0.126,0.136,0.113,0.0491,0.105
1.28E+00,5.25E-02,4.98E-02,6.00E-02,7.41E-02,,1.28E+00,1.30E-01,0.124,0.126,0.139,0.115,0.0493,0.106
1.28E+00,5.32E-02,5.06E-02,6.05E-02,7.48E-02,,1.28E+00,1.34E-01,0.129,0.129,0.14,0.12,0.0512,0.108
1.29E+00,5.47E-02,5.14E-02,6.20E-02,7.69E-02,,1.29E+00,1.37E-01,0.128,0.128,0.14,0.121,0.051,0.111
1.29E+00,5.58E-02,5.14E-02,6.27E-02,7.72E-02,,1.29E+00,1.37E-01,0.131,0.133,0.143,0.119,0.0509,0.11
1.29E+00,5.60E-02,5.29E-02,6.40E-02,7.90E-02,,1.29E+00,1.38E-01,0.129,0.134,0.143,0.122,0.0523,0.112
1.30E+00,5.74E-02,5.38E-02,6.53E-02,8.01E-02,,1.30E+00,1.44E-01,0.135,0.137,0.145,0.123,0.0526,0.114
1.30E+00,5.74E-02,5.44E-02,6.52E-02,8.12E-02,,1.30E+00,1.43E-01,0.136,0.136,0.147,0.125,0.054,0.116
1.31E+00,5.88E-02,5.43E-02,6.65E-02,8.24E-02,,1.31E+00,1.47E-01,0.139,0.14,0.149,0.129,0.0543,0.116
1.31E+00,5.93E-02,5.62E-02,6.77E-02,8.40E-02,,1.31E+00,1.46E-01,0.141,0.14,0.149,0.13,0.0559,0.12
1.32E+00,6.07E-02,5.62E-02,6.82E-02,8.52E-02,,1.32E+00,1.50E-01,0.143,0.142,0.156,0.131,0.0552,0.119
1.32E+00,6.18E-02,5.73E-02,7.00E-02,8.65E-02,,1.32E+00,1.53E-01,0.147,0.144,0.157,0.132,0.057,0.121
1.32E+00,6.23E-02,5.83E-02,7.12E-02,8.74E-02,,1.32E+00,1.54E-01,0.149,0.147,0.157,0.136,0.057,0.123
1.33E+00,6.37E-02,5.96E-02,7.27E-02,8.96E-02,,1.33E+00,1.57E-01,0.155,0.149,0.162,0.14,0.0594,0.124
1.33E+00,6.44E-02,6.11E-02,7.43E-02,9.26E-02,,1.33E+00,1.61E-01,0.159,0.153,0.164,0.143,0.0602,0.127
1.34E+00,6.58E-02,6.19E-02,7.62E-02,9.49E-02,,1.34E+00,1.61E-01,0.163,0.156,0.168,0.145,0.0628,0.131
1.34E+00,6.66E-02,6.40E-02,7.79E-02,9.71E-02,,1.34E+00,1.63E-01,0.165,0.16,0.171,0.149,0.0619,0.133
1.34E+00,6.69E-02,6.47E-02,7.91E-02,9.73E-02,,1.34E+00,1.63E-01,0.168,0.158,0.173,0.147,0.0637,0.135
1.35E+00,6.69E-02,6.41E-02,7.88E-02,9.66E-02,,1.35E+00,1.62E-01,0.169,0.159,0.168,0.145,0.0633,0.133
1.35E+00,6.73E-02,6.36E-02,7.78E-02,9.58E-02,,1.35E+00,1.67E-01,0.167,0.16,0.17,0.147,0.0638,0.136
1.36E+00,6.81E-02,6.39E-02,7.79E-02,9.45E-02,,1.36E+00,1.66E-01,0.165,0.16,0.17,0.148,0.0613,0.133
1.36E+00,6.75E-02,6.37E-02,7.78E-02,9.46E-02,,1.36E+00,1.68E-01,0.162,0.16,0.17,0.147,0.062,0.135
1.36E+00,6.74E-02,6.36E-02,7.75E-02,9.49E-02,,1.37E+00,1.68E-01,0.163,0.165,0.173,0.149,0.0642,0.135
1.37E+00,6.90E-02,6.37E-02,7.84E-02,9.53E-02,,1.37E+00,1.67E-01,0.164,0.163,0.174,0.148,0.0625,0.137
1.37E+00,6.78E-02,6.40E-02,7.78E-02,9.58E-02,,1.37E+00,1.69E-01,0.164,0.165,0.175,0.15,0.0622,0.137
1.38E+00,6.82E-02,6.45E-02,7.87E-02,9.70E-02,,1.38E+00,1.71E-01,0.164,0.165,0.176,0.15,0.0633,0.138
1.38E+00,6.81E-02,6.47E-02,7.89E-02,9.68E-02,,1.38E+00,1.71E-01,0.167,0.166,0.177,0.154,0.0641,0.141
1.39E+00,6.82E-02,6.57E-02,7.84E-02,9.70E-02,,1.39E+00,1.71E-01,0.17,0.171,0.176,0.153,0.0645,0.142
1.39E+00,6.95E-02,6.53E-02,8.00E-02,9.81E-02,,1.39E+00,1.74E-01,0.167,0.166,0.177,0.154,0.0652,0.141
1.39E+00,6.94E-02,6.57E-02,8.01E-02,9.88E-02,,1.39E+00,1.76E-01,0.168,0.171,0.179,0.154,0.0647,0.143
1.40E+00,6.97E-02,6.55E-02,8.13E-02,9.97E-02,,1.40E+00,1.74E-01,0.169,0.17,0.182,0.157,0.0642,0.143
1.40E+00,6.98E-02,6.64E-02,8.13E-02,1.01E-01,,1.40E+00,1.72E-01,0.172,0.174,0.183,0.158,0.067,0.147
1.41E+00,7.05E-02,6.76E-02,8.23E-02,1.02E-01,,1.41E+00,1.71E-01,0.173,0.177,0.188,0.159,0.0675,0.148
1.41E+00,7.08E-02,6.77E-02,8.36E-02,1.03E-01,,1.41E+00,1.78E-01,0.176,0.178,0.188,0.161,0.0663,0.149
1.41E+00,7.18E-02,6.88E-02,8.52E-02,1.05E-01,,1.42E+00,1.78E-01,0.178,0.18,0.194,0.168,0.0703,0.152
1.42E+00,7.20E-02,7.00E-02,8.70E-02,1.07E-01,,1.42E+00,1.82E-01,0.179,0.18,0.198,0.166,0.0689,0.155
1.42E+00,7.44E-02,7.16E-02,8.87E-02,1.10E-01,,1.42E+00,1.85E-01,0.184,0.186,0.202,0.175,0.0731,0.158
1.43E+00,7.54E-02,7.40E-02,9.07E-02,1.13E-01,,1.43E+00,1.90E-01,0.19,0.19,0.202,0.178,0.0721,0.163
1.43E+00,7.78E-02,7.61E-02,9.35E-02,1.17E-01,,1.43E+00,1.96E-01,0.196,0.2,0.21,0.184,0.0746,0.165
1.44E+00,7.88E-02,7.81E-02,9.76E-02,1.21E-01,,1.44E+00,2.01E-01,0.202,0.204,0.217,0.19,0.0768,0.171
1.44E+00,8.39E-02,8.16E-02,1.04E-01,1.27E-01,,1.44E+00,2.07E-01,0.212,0.217,0.231,0.199,0.0789,0.181
1.44E+00,8.72E-02,8.77E-02,1.08E-01,1.37E-01,,1.44E+00,2.22E-01,0.222,0.229,0.245,0.207,0.0856,0.191
1.45E+00,9.35E-02,9.28E-02,1.18E-01,1.48E-01,,1.45E+00,2.37E-01,0.244,0.249,0.263,0.228,0.0884,0.206
1.45E+00,1.03E-01,1.03E-01,1.30E-01,1.64E-01,,1.45E+00,2.57E-01,0.269,0.273,0.291,0.253,0.0982,0.225
1.46E+00,1.13E-01,1.15E-01,1.48E-01,1.90E-01,,1.46E+00,2.92E-01,0.312,0.312,0.339,0.294,0.11,0.259
1.46E+00,1.35E-01,1.36E-01,1.78E-01,2.31E-01,,1.46E+00,3.55E-01,0.386,0.388,0.432,0.371,0.124,0.315
1.46E+00,1.74E-01,1.74E-01,2.34E-01,3.13E-01,,1.46E+00,4.72E-01,0.543,0.569,0.645,0.538,0.159,0.439
1.47E+00,2.49E-01,2.55E-01,3.67E-01,5.14E-01,,1.47E+00,6.61E-01,0.895,0.97,1.17,0.945,0.231,0.747
1.47E+00,3.98E-01,4.60E-01,6.85E-01,1.01E+00,,1.47E+00,9.98E-01,1.6,1.76,2.11,1.73,0.415,1.39
1.48E+00,6.75E-01,9.30E-01,1.32E+00,1.98E+00,,1.48E+00,1.42E+00,2.59,2.84,3.38,2.79,0.781,2.41
1.48E+00,1.03E+00,1.63E+00,2.16E+00,3.13E+00,,1.48E+00,1.76E+00,3.52,3.75,4.35,3.68,1.26,3.42
1.49E+00,1.32E+00,2.20E+00,2.78E+00,3.81E+00,,1.49E+00,1.85E+00,3.77,4.06,4.47,3.9,1.56,3.85
1.49E+00,1.35E+00,2.29E+00,2.77E+00,3.60E+00,,1.49E+00,1.69E+00,3.23,3.6,3.62,3.26,1.45,3.44
1.49E+00,1.11E+00,1.83E+00,2.14E+00,2.64E+00,,1.49E+00,1.32E+00,2.22,2.61,2.39,2.2,1.02,2.4
1.50E+00,7.45E-01,1.13E+00,1.28E+00,1.51E+00,,1.50E+00,9.11E-01,1.29,1.5,1.33,1.26,0.553,1.35
1.50E+00,4.35E-01,5.61E-01,6.39E-01,7.27E-01,,1.50E+00,5.94E-01,0.691,0.744,0.682,0.635,0.27,0.673
1.51E+00,2.45E-01,2.71E-01,3.02E-01,3.52E-01,,1.51E+00,3.87E-01,0.414,0.412,0.398,0.365,0.154,0.362
1.51E+00,1.51E-01,1.53E-01,1.79E-01,2.11E-01,,1.51E+00,2.81E-01,0.293,0.293,0.295,0.265,0.111,0.255
1.51E+00,1.09E-01,1.11E-01,1.32E-01,1.61E-01,,1.51E+00,2.28E-01,0.236,0.238,0.251,0.226,0.0926,0.211
1.52E+00,8.64E-02,9.20E-02,1.11E-01,1.38E-01,,1.52E+00,2.01E-01,0.212,0.212,0.219,0.195,0.0813,0.189
1.52E+00,7.49E-02,8.01E-02,9.68E-02,1.20E-01,,1.52E+00,1.77E-01,0.192,0.197,0.199,0.177,0.0767,0.167
1.53E+00,6.56E-02,7.16E-02,8.81E-02,1.08E-01,,1.53E+00,1.61E-01,0.179,0.182,0.19,0.164,0.0685,0.155
1.53E+00,6.07E-02,6.55E-02,8.16E-02,9.77E-02,,1.53E+00,1.48E-01,0.163,0.171,0.181,0.157,0.0656,0.15
1.54E+00,5.68E-02,6.15E-02,7.47E-02,9.05E-02,,1.54E+00,1.44E-01,0.159,0.161,0.172,0.148,0.0625,0.142
1.54E+00,5.39E-02,5.64E-02,6.99E-02,8.73E-02,,1.54E+00,1.42E-01,0.156,0.159,0.166,0.138,0.0616,0.137
1.54E+00,5.19E-02,5.55E-02,6.61E-02,8.35E-02,,1.54E+00,1.36E-01,0.153,0.156,0.16,0.144,0.06,0.137
1.55E+00,4.83E-02,5.11E-02,6.34E-02,8.02E-02,,1.55E+00,1.31E-01,0.141,0.147,0.155,0.135,0.057,0.129
1.55E+00,4.74E-02,5.04E-02,6.20E-02,7.66E-02,,1.55E+00,1.32E-01,0.144,0.143,0.153,0.131,0.0551,0.125
1.56E+00,4.55E-02,4.88E-02,6.06E-02,7.44E-02,,1.56E+00,1.24E-01,0.139,0.142,0.143,0.131,0.055,0.121
1.56E+00,4.45E-02,4.71E-02,5.79E-02,7.13E-02,,1.56E+00,1.26E-01,0.139,0.144,0.149,0.131,0.0534,0.114
1.56E+00,4.42E-02,4.54E-02,5.73E-02,7.09E-02,,1.56E+00,1.26E-01,0.13,0.135,0.146,0.122,0.0528,0.121
1.57E+00,4.31E-02,4.65E-02,5.68E-02,7.01E-02,,1.57E+00,1.22E-01,0.124,0.137,0.143,0.126,0.0538,0.119
1.57E+00,4.29E-02,4.47E-02,5.66E-02,6.98E-02,,1.57E+00,1.20E-01,0.13,0.136,0.147,0.124,0.0537,0.118
1.58E+00,4.37E-02,4.49E-02,5.55E-02,6.84E-02,,1.58E+00,1.22E-01,0.124,0.137,0.142,0.125,0.0503,0.115
1.58E+00,4.15E-02,4.54E-02,5.58E-02,7.15E-02,,1.58E+00,1.25E-01,0.131,0.134,0.141,0.124,0.0512,0.112
1.58E+00,4.26E-02,4.61E-02,5.66E-02,7.20E-02,,1.59E+00,1.27E-01,0.129,0.137,0.148,0.13,0.0513,0.121
1.59E+00,4.30E-02,4.51E-02,5.66E-02,7.10E-02,,1.59E+00,1.26E-01,0.123,0.14,0.145,0.125,0.0533,0.118
1.59E+00,4.14E-02,4.55E-02,5.74E-02,7.14E-02,,1.59E+00,1.26E-01,0.127,0.141,0.145,0.124,0.0528,0.114
1.60E+00,4.26E-02,4.62E-02,5.65E-02,7.28E-02,,1.60E+00,1.29E-01,0.127,0.136,0.145,0.13,0.0495,0.117
1.60E+00,4.46E-02,4.87E-02,6.05E-02,7.49E-02,,1.60E+00,1.30E-01,0.136,0.132,0.146,0.134,0.0539,0.119
1.61E+00,4.66E-02,5.04E-02,5.95E-02,7.85E-02,,1.61E+00,1.36E-01,0.136,0.152,0.156,0.13,0.0534,0.118
1.61E+00,4.95E-02,5.08E-02,6.56E-02,8.19E-02,,1.61E+00,1.44E-01,0.144,0.148,0.158,0.138,0.0561,0.132
1.61E+00,5.07E-02,5.49E-02,6.69E-02,8.68E-02,,1.61E+00,1.47E-01,0.146,0.161,0.161,0.153,0.0585,0.135
1.62E+00,5.80E-02,6.01E-02,7.40E-02,9.43E-02,,1.62E+00,1.61E-01,0.158,0.182,0.181,0.157,0.062,0.147
1.62E+00,6.45E-02,6.68E-02,8.41E-02,1.04E-01,,1.62E+00,1.71E-01,0.159,0.195,0.201,0.166,0.0665,0.161
1.63E+00,7.37E-02,7.45E-02,1.00E-01,1.28E-01,,1.63E+00,2.06E-01,0.189,0.241,0.258,0.193,0.0693,0.182
1.63E+00,9.38E-02,9.64E-02,1.31E-01,1.69E-01,,1.63E+00,2.78E-01,0.242,0.308,0.364,0.275,0.0891,0.252
1.63E+00,1.25E-01,1.38E-01,1.91E-01,2.66E-01,,1.64E+00,3.47E-01,0.335,0.451,0.573,0.424,0.119,0.381
1.64E+00,1.80E-01,2.33E-01,3.23E-01,4.61E-01,,1.64E+00,4.05E-01,0.509,0.761,0.845,0.709,0.175,0.613
1.64E+00,2.61E-01,4.31E-01,5.55E-01,7.77E-01,,1.64E+00,5.10E-01,0.742,1.05,1.19,1,0.294,0.896
1.65E+00,3.58E-01,5.77E-01,7.36E-01,1.07E+00,,1.65E+00,4.68E-01,0.886,1.17,1.29,1.36,0.405,1.1
,,,,,,0.00E+00,,0,0,0,,,
,,,,,,0.00E+00,,0,0,0,,,